#time,accel_x,accel_y,accel_z
93.119193,-9474.636058,74.020594,306.438199
93.119519,-9252.574275,0.000000,0.000000
93.119846,-9326.594869,74.020594,229.828649
93.120172,-9474.636058,370.102971,0.000000
93.120499,-9474.636058,0.000000,383.047749
93.120825,-9400.615463,444.123565,0.000000
93.121151,-9474.636058,222.061783,229.828649
93.121478,-9326.594869,0.000000,229.828649
93.121804,-9252.574275,148.041188,0.000000
93.122131,-9030.512492,370.102971,306.438199
93.122457,-9178.553681,0.000000,0.000000
93.122784,-9622.677246,74.020594,306.438199
93.123110,-9474.636058,0.000000,229.828649
93.123436,-9400.615463,0.000000,153.219100
93.123763,-9474.636058,74.020594,0.000000
93.124089,-9770.718434,0.000000,76.609550
93.124416,-9474.636058,0.000000,153.219100
93.124742,-9622.677246,222.061783,76.609550
93.125069,-9030.512492,0.000000,0.000000
93.125395,-9474.636058,0.000000,0.000000
93.125721,-9622.677246,0.000000,0.000000
93.126048,-9326.594869,-148.041188,383.047749
93.126374,-9474.636058,74.020594,0.000000
93.126701,-9474.636058,0.000000,0.000000
93.127027,-9474.636058,-148.041188,306.438199
93.127354,-9474.636058,0.000000,0.000000
93.127680,-9030.512492,0.000000,76.609550
93.128006,-9474.636058,0.000000,306.438199
93.128333,-9474.636058,-148.041188,153.219100
93.128659,-9622.677246,0.000000,229.828649
93.128986,-9104.533087,0.000000,306.438199
93.129312,-8734.430116,518.144159,76.609550
93.129639,-9474.636058,0.000000,0.000000
93.129965,-9474.636058,296.082377,0.000000
93.130291,-9178.553681,0.000000,306.438199
93.130618,-9252.574275,0.000000,689.485948
93.130944,-9474.636058,0.000000,229.828649
93.131271,-9548.656652,0.000000,0.000000
93.131597,-9326.594869,0.000000,459.657299
93.131924,-9474.636058,222.061783,76.609550
93.132250,-9400.615463,74.020594,229.828649
93.132576,-9474.636058,222.061783,229.828649
93.132903,-9400.615463,0.000000,153.219100
93.133229,-9326.594869,74.020594,76.609550
93.133556,-9474.636058,222.061783,306.438199
93.133882,-9326.594869,222.061783,153.219100
93.134209,-9474.636058,74.020594,0.000000
93.134535,-9252.574275,0.000000,76.609550
93.134861,-9400.615463,222.061783,229.828649
93.135188,-9252.574275,0.000000,306.438199
93.135514,-9400.615463,296.082377,229.828649
93.135841,-9326.594869,0.000000,383.047749
93.136167,-9326.594869,0.000000,229.828649
93.136494,-9474.636058,222.061783,0.000000
93.136820,-9326.594869,0.000000,229.828649
93.137146,-9474.636058,222.061783,0.000000
93.137473,-9474.636058,0.000000,306.438199
93.137799,-9622.677246,518.144159,0.000000
93.138126,-9548.656652,0.000000,0.000000
93.138452,-9474.636058,0.000000,153.219100
93.138779,-9326.594869,0.000000,153.219100
93.139105,-9178.553681,222.061783,306.438199
93.139431,-9474.636058,0.000000,0.000000
93.139758,-9178.553681,-296.082377,229.828649
93.140084,-9474.636058,0.000000,229.828649
93.140411,-9400.615463,0.000000,76.609550
93.140737,-9326.594869,0.000000,0.000000
93.141064,-9326.594869,0.000000,153.219100
93.141390,-9696.697840,148.041188,0.000000
93.141718,-9326.594869,296.082377,76.609550
93.142045,-9622.677246,74.020594,612.876398
93.142371,-9474.636058,0.000000,229.828649
93.142698,-9474.636058,0.000000,306.438199
93.143024,-9400.615463,148.041188,383.047749
93.143350,-9326.594869,74.020594,76.609550
93.143677,-9474.636058,0.000000,76.609550
93.144003,-9326.594869,-74.020594,306.438199
93.144330,-9400.615463,0.000000,0.000000
93.144656,-9252.574275,-222.061783,0.000000
93.144983,-9474.636058,148.041188,-153.219100
93.145309,-9474.636058,0.000000,76.609550
93.145635,-9548.656652,74.020594,306.438199
93.145962,-9474.636058,0.000000,459.657299
93.146288,-9178.553681,0.000000,76.609550
93.146615,-9474.636058,148.041188,153.219100
93.146941,-9474.636058,222.061783,153.219100
93.147268,-9474.636058,0.000000,76.609550
93.147594,-9326.594869,0.000000,229.828649
93.147920,-8956.491898,222.061783,0.000000
93.148247,-9030.512492,222.061783,76.609550
93.148573,-9104.533087,222.061783,0.000000
93.148900,-9252.574275,74.020594,-153.219100
93.149226,-9548.656652,148.041188,-229.828649
93.149552,-9622.677246,74.020594,0.000000
93.149879,-9474.636058,74.020594,0.000000
93.150205,-9474.636058,0.000000,229.828649
93.150532,-9548.656652,740.205942,306.438199
93.150858,-9474.636058,0.000000,536.266849
93.151185,-9326.594869,74.020594,153.219100
93.151511,-9474.636058,222.061783,229.828649
93.151837,-9326.594869,0.000000,0.000000
93.152164,-9474.636058,74.020594,0.000000
93.152490,-9400.615463,0.000000,153.219100
93.152817,-9400.615463,74.020594,0.000000
93.153143,-9474.636058,0.000000,229.828649
93.153470,-9252.574275,0.000000,76.609550
93.153796,-9548.656652,0.000000,229.828649
93.154122,-9622.677246,74.020594,0.000000
93.154449,-9548.656652,74.020594,306.438199
93.154775,-9548.656652,0.000000,612.876398
93.155102,-9474.636058,0.000000,0.000000
93.155428,-9400.615463,0.000000,0.000000
93.155755,-9400.615463,74.020594,0.000000
93.156081,-9474.636058,0.000000,0.000000
93.156407,-9104.533087,0.000000,229.828649
93.156734,-9474.636058,74.020594,76.609550
93.157060,-9474.636058,-222.061783,306.438199
93.157387,-9548.656652,0.000000,459.657299
93.157713,-9252.574275,74.020594,76.609550
93.158040,-9400.615463,0.000000,153.219100
93.158366,-9474.636058,148.041188,0.000000
93.158692,-9326.594869,296.082377,0.000000
93.159019,-9178.553681,0.000000,-229.828649
93.159345,-9696.697840,0.000000,0.000000
93.159672,-9474.636058,0.000000,0.000000
93.159998,-9474.636058,74.020594,76.609550
93.160325,-9178.553681,0.000000,383.047749
93.160651,-9326.594869,0.000000,229.828649
93.160977,-9400.615463,0.000000,306.438199
93.161304,-9474.636058,148.041188,0.000000
93.161630,-9474.636058,222.061783,0.000000
93.161957,-9622.677246,518.144159,76.609550
93.162283,-9326.594869,370.102971,0.000000
93.162609,-9474.636058,74.020594,229.828649
93.162936,-9326.594869,148.041188,0.000000
93.163262,-9548.656652,370.102971,76.609550
93.163589,-9326.594869,0.000000,76.609550
93.163915,-9474.636058,370.102971,0.000000
93.164242,-9326.594869,74.020594,76.609550
93.164568,-8956.491898,148.041188,0.000000
93.164894,-9474.636058,222.061783,459.657299
93.165221,-9474.636058,148.041188,383.047749
93.165547,-9326.594869,518.144159,0.000000
93.165874,-9474.636058,0.000000,0.000000
93.166200,-9326.594869,518.144159,0.000000
93.166527,-9548.656652,74.020594,383.047749
93.166853,-9474.636058,296.082377,153.219100
93.167179,-9400.615463,296.082377,0.000000
93.167506,-9252.574275,222.061783,0.000000
93.167832,-9474.636058,0.000000,0.000000
93.168159,-9474.636058,-148.041188,0.000000
93.168485,-9252.574275,0.000000,0.000000
93.168812,-9326.594869,-296.082377,536.266849
93.169138,-9252.574275,74.020594,76.609550
93.169464,-9178.553681,0.000000,0.000000
93.169791,-9474.636058,222.061783,0.000000
93.170117,-9474.636058,0.000000,306.438199
93.170444,-9252.574275,592.164754,383.047749
93.170770,-9696.697840,74.020594,0.000000
93.171097,-9474.636058,0.000000,383.047749
93.171423,-9474.636058,0.000000,76.609550
93.171749,-9400.615463,-296.082377,383.047749
93.172076,-9400.615463,222.061783,0.000000
93.172402,-9326.594869,148.041188,0.000000
93.172729,-9178.553681,0.000000,-153.219100
93.173055,-9400.615463,148.041188,-153.219100
93.173382,-9030.512492,74.020594,0.000000
93.173708,-9400.615463,0.000000,153.219100
93.174034,-9548.656652,0.000000,153.219100
93.174361,-9400.615463,0.000000,229.828649
93.174687,-9252.574275,296.082377,0.000000
93.175014,-9622.677246,148.041188,229.828649
93.175340,-9400.615463,0.000000,153.219100
93.175666,-9326.594869,0.000000,76.609550
93.175993,-9252.574275,296.082377,76.609550
93.176319,-9178.553681,0.000000,0.000000
93.176646,-9326.594869,0.000000,0.000000
93.176972,-9326.594869,74.020594,153.219100
93.177299,-9548.656652,74.020594,0.000000
93.177625,-9548.656652,370.102971,0.000000
93.177951,-9474.636058,74.020594,0.000000
93.178278,-9252.574275,74.020594,306.438199
93.178604,-9622.677246,370.102971,306.438199
93.178931,-9326.594869,296.082377,229.828649
93.179257,-9622.677246,74.020594,229.828649
93.179584,-9474.636058,74.020594,229.828649
93.179910,-9548.656652,296.082377,0.000000
93.180236,-9326.594869,74.020594,0.000000
93.180563,-9474.636058,148.041188,-383.047749
93.180889,-9400.615463,296.082377,76.609550
93.181216,-9326.594869,222.061783,0.000000
93.181542,-9400.615463,148.041188,229.828649
93.181869,-9474.636058,-296.082377,153.219100
93.182195,-9400.615463,74.020594,229.828649
93.182521,-9474.636058,74.020594,76.609550
93.182848,-9548.656652,222.061783,459.657299
93.183174,-9548.656652,-296.082377,1072.533697
93.183501,-9400.615463,222.061783,0.000000
93.183827,-9178.553681,0.000000,229.828649
93.184154,-9178.553681,0.000000,0.000000
93.184480,-9474.636058,222.061783,-76.609550
93.184806,-9252.574275,0.000000,0.000000
93.185133,-9252.574275,0.000000,153.219100
93.185459,-9252.574275,148.041188,76.609550
93.185786,-9252.574275,0.000000,306.438199
93.186112,-9030.512492,222.061783,0.000000
93.186438,-9622.677246,0.000000,153.219100
93.186765,-9474.636058,0.000000,229.828649
93.187091,-9400.615463,148.041188,76.609550
93.187418,-9030.512492,0.000000,0.000000
93.187744,-9474.636058,0.000000,153.219100
93.188071,-9474.636058,0.000000,153.219100
93.188397,-9474.636058,74.020594,229.828649
93.188723,-9252.574275,222.061783,0.000000
93.189050,-9104.533087,0.000000,-229.828649
93.189376,-9030.512492,-222.061783,153.219100
93.189703,-9474.636058,0.000000,153.219100
93.190029,-9474.636058,-148.041188,229.828649
93.190356,-9696.697840,222.061783,153.219100
93.190682,-9696.697840,0.000000,383.047749
93.191008,-9474.636058,74.020594,76.609550
93.191335,-9770.718434,74.020594,76.609550
93.191661,-9326.594869,-148.041188,536.266849
93.191988,-9474.636058,296.082377,-229.828649
93.192314,-9252.574275,0.000000,153.219100
93.192641,-9474.636058,74.020594,0.000000
93.192967,-9400.615463,0.000000,0.000000
93.193293,-9400.615463,222.061783,76.609550
93.193620,-9030.512492,148.041188,0.000000
93.193946,-9030.512492,0.000000,0.000000
93.194273,-9622.677246,74.020594,306.438199
93.194599,-9400.615463,296.082377,0.000000
93.194926,-9696.697840,296.082377,459.657299
93.195252,-9400.615463,148.041188,306.438199
93.195578,-9326.594869,74.020594,536.266849
93.195905,-9400.615463,74.020594,76.609550
93.196231,-9474.636058,370.102971,0.000000
93.196558,-9252.574275,0.000000,0.000000
93.196884,-9252.574275,296.082377,0.000000
93.197211,-9326.594869,74.020594,-229.828649
93.197537,-9474.636058,74.020594,153.219100
93.197863,-9474.636058,0.000000,306.438199
93.198190,-9548.656652,148.041188,76.609550
93.198516,-9474.636058,148.041188,76.609550
93.198843,-9844.739029,444.123565,306.438199
93.199169,-9622.677246,74.020594,536.266849
93.199495,-9474.636058,222.061783,229.828649
93.199822,-9400.615463,148.041188,0.000000
93.200148,-9252.574275,0.000000,459.657299
93.200475,-9474.636058,0.000000,-153.219100
93.200801,-9474.636058,0.000000,0.000000
93.201128,-9252.574275,0.000000,229.828649
93.201454,-9474.636058,0.000000,0.000000
93.201780,-9474.636058,222.061783,76.609550
93.202107,-9548.656652,0.000000,383.047749
93.202433,-9474.636058,0.000000,0.000000
93.202760,-9474.636058,0.000000,153.219100
93.203086,-9400.615463,0.000000,-459.657299
93.203413,-9474.636058,0.000000,0.000000
93.203739,-9548.656652,222.061783,0.000000
93.204065,-9252.574275,0.000000,306.438199
93.204392,-9326.594869,222.061783,0.000000
93.204718,-9178.553681,0.000000,536.266849
93.205045,-9474.636058,222.061783,-229.828649
93.205371,-9548.656652,0.000000,0.000000
93.205698,-9474.636058,0.000000,383.047749
93.206024,-9622.677246,222.061783,306.438199
93.206350,-9548.656652,74.020594,306.438199
93.206677,-9474.636058,74.020594,536.266849
93.207003,-9400.615463,148.041188,229.828649
93.207330,-9252.574275,0.000000,536.266849
93.207656,-9252.574275,74.020594,229.828649
93.207983,-9252.574275,296.082377,0.000000
93.208309,-9400.615463,74.020594,0.000000
93.208635,-9474.636058,370.102971,0.000000
93.208962,-9326.594869,-74.020594,76.609550
93.209288,-9326.594869,0.000000,229.828649
93.209615,-9178.553681,74.020594,76.609550
93.209941,-9474.636058,0.000000,229.828649
93.210268,-9030.512492,-74.020594,0.000000
93.210594,-9400.615463,0.000000,-153.219100
93.210920,-9326.594869,222.061783,0.000000
93.211247,-9326.594869,222.061783,76.609550
93.211573,-9400.615463,370.102971,153.219100
93.211900,-9696.697840,296.082377,153.219100
93.212226,-9474.636058,0.000000,0.000000
93.212552,-9474.636058,0.000000,306.438199
93.212879,-9474.636058,0.000000,0.000000
93.213205,-9474.636058,296.082377,76.609550
93.213532,-9178.553681,0.000000,229.828649
93.213858,-9178.553681,0.000000,0.000000
93.214185,-9400.615463,0.000000,459.657299
93.214511,-9622.677246,0.000000,0.000000
93.214837,-9474.636058,74.020594,0.000000
93.215164,-9400.615463,0.000000,76.609550
93.215490,-9326.594869,0.000000,0.000000
93.215817,-9474.636058,-148.041188,0.000000
93.216143,-9400.615463,0.000000,76.609550
93.216470,-9474.636058,0.000000,229.828649
93.216796,-9548.656652,-148.041188,229.828649
93.217122,-9474.636058,148.041188,0.000000
93.217449,-9474.636058,0.000000,0.000000
93.217775,-9252.574275,0.000000,153.219100
93.218102,-9252.574275,-148.041188,76.609550
93.218428,-9178.553681,0.000000,229.828649
93.218755,-9104.533087,0.000000,0.000000
93.219081,-9326.594869,0.000000,0.000000
93.219407,-9326.594869,0.000000,0.000000
93.219734,-9770.718434,74.020594,-153.219100
93.220060,-9326.594869,0.000000,689.485948
93.220387,-9622.677246,148.041188,229.828649
93.220713,-9474.636058,0.000000,76.609550
93.221040,-9326.594869,0.000000,229.828649
93.221366,-9474.636058,0.000000,306.438199
93.221692,-9770.718434,0.000000,0.000000
93.222019,-9474.636058,0.000000,76.609550
93.222345,-9400.615463,74.020594,0.000000
93.222672,-9178.553681,-148.041188,229.828649
93.222998,-9326.594869,592.164754,-383.047749
93.223325,-9474.636058,222.061783,76.609550
93.223651,-9178.553681,0.000000,-76.609550
93.223977,-9400.615463,222.061783,0.000000
93.224304,-9104.533087,296.082377,-689.485948
93.224630,-9474.636058,0.000000,536.266849
93.224957,-9252.574275,222.061783,0.000000
93.225283,-9400.615463,0.000000,536.266849
93.225609,-9178.553681,0.000000,229.828649
93.225936,-9474.636058,222.061783,0.000000
93.226262,-9548.656652,444.123565,-383.047749
93.226589,-9400.615463,0.000000,0.000000
93.226915,-9252.574275,148.041188,153.219100
93.227242,-9326.594869,74.020594,459.657299
93.227568,-9326.594869,0.000000,306.438199
93.227894,-9178.553681,222.061783,153.219100
93.228221,-9252.574275,74.020594,0.000000
93.228547,-9178.553681,444.123565,76.609550
93.228874,-9622.677246,0.000000,0.000000
93.229200,-9474.636058,0.000000,0.000000
93.229527,-9326.594869,74.020594,306.438199
93.229853,-9474.636058,0.000000,229.828649
93.230179,-9548.656652,296.082377,459.657299
93.230506,-9474.636058,148.041188,306.438199
93.230832,-9252.574275,0.000000,0.000000
93.231159,-9178.553681,148.041188,76.609550
93.231485,-9104.533087,222.061783,153.219100
93.231812,-9474.636058,0.000000,0.000000
93.232138,-9326.594869,0.000000,0.000000
93.232464,-9400.615463,0.000000,0.000000
93.232791,-9178.553681,222.061783,76.609550
93.233117,-9474.636058,0.000000,0.000000
93.233444,-9770.718434,74.020594,76.609550
93.233770,-9696.697840,0.000000,153.219100
93.234097,-9474.636058,0.000000,306.438199
93.234423,-9474.636058,222.061783,612.876398
93.234749,-9474.636058,148.041188,76.609550
93.235076,-9252.574275,0.000000,153.219100
93.235402,-9474.636058,74.020594,0.000000
93.235729,-9104.533087,740.205942,153.219100
93.236055,-9326.594869,0.000000,0.000000
93.236382,-9400.615463,0.000000,153.219100
93.236708,-9474.636058,222.061783,306.438199
93.237034,-9548.656652,0.000000,536.266849
93.237361,-9474.636058,0.000000,229.828649
93.237687,-9474.636058,0.000000,229.828649
93.238014,-9400.615463,222.061783,76.609550
93.238340,-9622.677246,74.020594,153.219100
93.238666,-9252.574275,222.061783,0.000000
93.238993,-9400.615463,296.082377,153.219100
93.239319,-9400.615463,148.041188,229.828649
93.239646,-9400.615463,0.000000,76.609550
93.239972,-9252.574275,296.082377,0.000000
93.240299,-9400.615463,222.061783,76.609550
93.240625,-9252.574275,296.082377,0.000000
93.240951,-9474.636058,0.000000,76.609550
93.241278,-9474.636058,148.041188,76.609550
93.241604,-9474.636058,74.020594,76.609550
93.241931,-9622.677246,74.020594,306.438199
93.242257,-9400.615463,148.041188,76.609550
93.242584,-9326.594869,148.041188,306.438199
93.242910,-9400.615463,222.061783,153.219100
93.243236,-9326.594869,74.020594,0.000000
93.243563,-9400.615463,222.061783,76.609550
93.243889,-9400.615463,148.041188,0.000000
93.244216,-9326.594869,296.082377,229.828649
93.244542,-9474.636058,0.000000,76.609550
93.244869,-9178.553681,0.000000,229.828649
93.245195,-9622.677246,148.041188,153.219100
93.245521,-9474.636058,0.000000,76.609550
93.245848,-9474.636058,370.102971,76.609550
93.246174,-9326.594869,74.020594,536.266849
93.246501,-9474.636058,222.061783,76.609550
93.246827,-9474.636058,0.000000,459.657299
93.247154,-9104.533087,296.082377,0.000000
93.247480,-9474.636058,0.000000,76.609550
93.247807,-9326.594869,0.000000,76.609550
93.248133,-9326.594869,148.041188,76.609550
93.248459,-9326.594869,74.020594,536.266849
93.248786,-9326.594869,0.000000,0.000000
93.249112,-9326.594869,0.000000,0.000000
93.249439,-9474.636058,148.041188,229.828649
93.249765,-9400.615463,-222.061783,459.657299
93.250092,-9770.718434,0.000000,76.609550
93.250418,-9474.636058,148.041188,306.438199
93.250744,-9548.656652,296.082377,229.828649
93.251071,-9474.636058,0.000000,153.219100
93.251397,-9178.553681,296.082377,0.000000
93.251724,-9178.553681,0.000000,76.609550
93.252050,-9474.636058,0.000000,76.609550
93.252377,-9252.574275,0.000000,153.219100
93.252703,-9252.574275,74.020594,459.657299
93.253029,-9326.594869,74.020594,229.828649
93.253356,-9474.636058,74.020594,76.609550
93.253682,-9326.594869,0.000000,306.438199
93.254009,-9548.656652,74.020594,76.609550
93.254335,-9400.615463,-296.082377,0.000000
93.254662,-9326.594869,370.102971,76.609550
93.254988,-9400.615463,0.000000,153.219100
93.255315,-9622.677246,148.041188,153.219100
93.255641,-9844.739029,296.082377,153.219100
93.255967,-9622.677246,0.000000,229.828649
93.256294,-9030.512492,0.000000,0.000000
93.256620,-9622.677246,74.020594,0.000000
93.256947,-9400.615463,0.000000,76.609550
93.257273,-9474.636058,74.020594,0.000000
93.257600,-9770.718434,74.020594,-76.609550
93.257926,-9400.615463,0.000000,0.000000
93.258252,-9474.636058,0.000000,76.609550
93.258579,-9548.656652,296.082377,76.609550
93.258905,-9400.615463,222.061783,229.828649
93.259232,-9474.636058,222.061783,383.047749
93.259558,-9252.574275,222.061783,0.000000
93.259885,-9326.594869,148.041188,-383.047749
93.260211,-9474.636058,148.041188,0.000000
93.260537,-9326.594869,0.000000,0.000000
93.260864,-9252.574275,0.000000,306.438199
93.261190,-9400.615463,222.061783,76.609550
93.261517,-9474.636058,148.041188,-76.609550
93.261843,-9326.594869,74.020594,306.438199
93.262170,-9548.656652,74.020594,76.609550
93.262496,-9474.636058,74.020594,76.609550
93.262823,-9548.656652,0.000000,229.828649
93.263149,-9548.656652,74.020594,0.000000
93.263475,-9918.759623,74.020594,0.000000
93.263802,-9474.636058,148.041188,-153.219100
93.264128,-9474.636058,0.000000,0.000000
93.264455,-9252.574275,0.000000,0.000000
93.264781,-9474.636058,0.000000,153.219100
93.265108,-9178.553681,0.000000,229.828649
93.265434,-9474.636058,222.061783,306.438199
93.265760,-9474.636058,0.000000,459.657299
93.266087,-9548.656652,148.041188,306.438199
93.266413,-9548.656652,296.082377,0.000000
93.266740,-9770.718434,0.000000,0.000000
93.267066,-9474.636058,0.000000,153.219100
93.267393,-9548.656652,74.020594,0.000000
93.267719,-9104.533087,0.000000,0.000000
93.268045,-9326.594869,0.000000,0.000000
93.268372,-9252.574275,-370.102971,306.438199
93.268698,-9326.594869,74.020594,306.438199
93.269025,-9548.656652,0.000000,0.000000
93.269351,-9326.594869,0.000000,0.000000
93.269678,-9474.636058,0.000000,536.266849
93.270004,-9548.656652,74.020594,76.609550
93.270331,-9474.636058,222.061783,153.219100
93.270657,-9474.636058,148.041188,229.828649
93.270983,-9548.656652,296.082377,153.219100
93.271310,-9548.656652,0.000000,306.438199
93.271636,-9474.636058,222.061783,76.609550
93.271963,-9400.615463,222.061783,76.609550
93.272289,-9474.636058,-74.020594,153.219100
93.272616,-9030.512492,74.020594,0.000000
93.272942,-9178.553681,148.041188,0.000000
93.273268,-9474.636058,148.041188,0.000000
93.273595,-9400.615463,222.061783,0.000000
93.273921,-9474.636058,74.020594,0.000000
93.274248,-9474.636058,148.041188,153.219100
93.274574,-9474.636058,296.082377,383.047749
93.274901,-9548.656652,296.082377,306.438199
93.275227,-9474.636058,148.041188,229.828649
93.275553,-9326.594869,0.000000,76.609550
93.275880,-9548.656652,222.061783,0.000000
93.276206,-9252.574275,0.000000,76.609550
93.276533,-9474.636058,0.000000,153.219100
93.276859,-9474.636058,74.020594,306.438199
93.277186,-9104.533087,0.000000,-306.438199
93.277512,-9474.636058,74.020594,0.000000
93.277838,-9474.636058,0.000000,0.000000
93.278165,-9474.636058,222.061783,0.000000
93.278491,-9400.615463,0.000000,383.047749
93.278818,-9548.656652,0.000000,153.219100
93.279144,-9400.615463,222.061783,76.609550
93.279471,-9548.656652,222.061783,0.000000
93.279797,-9104.533087,0.000000,153.219100
93.280124,-9178.553681,-148.041188,229.828649
93.280450,-9474.636058,0.000000,153.219100
93.280776,-9326.594869,0.000000,0.000000
93.281103,-9326.594869,74.020594,536.266849
93.281429,-9326.594869,74.020594,76.609550
93.281756,-9474.636058,0.000000,306.438199
93.282082,-9252.574275,0.000000,0.000000
93.282409,-9400.615463,0.000000,0.000000
93.282735,-9474.636058,222.061783,76.609550
93.283061,-9474.636058,0.000000,0.000000
93.283388,-9474.636058,148.041188,76.609550
93.283714,-9474.636058,0.000000,0.000000
93.284041,-9474.636058,518.144159,76.609550
93.284367,-9326.594869,148.041188,0.000000
93.284694,-9400.615463,74.020594,229.828649
93.285020,-9474.636058,148.041188,306.438199
93.285346,-9252.574275,296.082377,229.828649
93.285673,-9252.574275,296.082377,153.219100
93.285999,-9474.636058,222.061783,0.000000
93.286326,-9474.636058,0.000000,76.609550
93.286652,-9474.636058,0.000000,153.219100
93.286979,-9474.636058,74.020594,229.828649
93.287305,-9474.636058,370.102971,0.000000
93.287632,-9474.636058,222.061783,76.609550
93.287958,-9474.636058,222.061783,0.000000
93.288284,-9252.574275,-222.061783,0.000000
93.288611,-9474.636058,222.061783,76.609550
93.288937,-9474.636058,0.000000,306.438199
93.289264,-9474.636058,0.000000,229.828649
93.289590,-9178.553681,222.061783,229.828649
93.289917,-9326.594869,74.020594,76.609550
93.290243,-9474.636058,0.000000,0.000000
93.290569,-9326.594869,-148.041188,0.000000
93.290896,-9474.636058,74.020594,76.609550
93.291222,-9474.636058,0.000000,612.876398
93.291549,-9400.615463,222.061783,229.828649
93.291875,-9622.677246,74.020594,153.219100
93.292202,-9622.677246,0.000000,0.000000
93.292528,-9548.656652,222.061783,153.219100
93.292854,-9252.574275,74.020594,76.609550
93.293181,-9474.636058,0.000000,153.219100
93.293507,-9400.615463,0.000000,0.000000
93.293834,-9474.636058,74.020594,383.047749
93.294160,-9474.636058,74.020594,0.000000
93.294487,-9326.594869,-222.061783,153.219100
93.294813,-9474.636058,0.000000,229.828649
93.295140,-9474.636058,74.020594,0.000000
93.295466,-9400.615463,74.020594,153.219100
93.295792,-9548.656652,222.061783,383.047749
93.296119,-9400.615463,0.000000,0.000000
93.296445,-9548.656652,74.020594,76.609550
93.296772,-9326.594869,-148.041188,383.047749
93.297098,-9104.533087,74.020594,153.219100
93.297425,-9178.553681,0.000000,153.219100
93.297751,-9474.636058,0.000000,459.657299
93.298077,-9326.594869,0.000000,153.219100
93.298404,-9474.636058,0.000000,306.438199
93.298730,-9104.533087,148.041188,0.000000
93.299057,-9474.636058,296.082377,0.000000
93.299383,-9326.594869,0.000000,306.438199
93.299710,-9178.553681,370.102971,0.000000
93.300036,-9326.594869,0.000000,0.000000
93.300362,-9548.656652,222.061783,229.828649
93.300689,-9400.615463,0.000000,229.828649
93.301015,-8956.491898,222.061783,-383.047749
93.301342,-9474.636058,74.020594,306.438199
93.301668,-9474.636058,0.000000,229.828649
93.301995,-9474.636058,0.000000,76.609550
93.302321,-9252.574275,0.000000,0.000000
93.302647,-9252.574275,148.041188,0.000000
93.302974,-9326.594869,0.000000,153.219100
93.303300,-9474.636058,0.000000,229.828649
93.303627,-9252.574275,296.082377,0.000000
93.303953,-9622.677246,296.082377,383.047749
93.304280,-9400.615463,0.000000,459.657299
93.304606,-9474.636058,296.082377,0.000000
93.304933,-9474.636058,0.000000,229.828649
93.305259,-9178.553681,148.041188,76.609550
93.305585,-9104.533087,148.041188,0.000000
93.305912,-9326.594869,0.000000,76.609550
93.306238,-9252.574275,0.000000,153.219100
93.306565,-9400.615463,0.000000,306.438199
93.306891,-9622.677246,0.000000,229.828649
93.307218,-9474.636058,0.000000,383.047749
93.307544,-9104.533087,0.000000,0.000000
93.307870,-9474.636058,0.000000,306.438199
93.308197,-9252.574275,222.061783,0.000000
93.308523,-9326.594869,74.020594,153.219100
93.308850,-9474.636058,0.000000,383.047749
93.309176,-9400.615463,0.000000,153.219100
93.309503,-9474.636058,74.020594,459.657299
93.309829,-9474.636058,-148.041188,76.609550
93.310155,-9326.594869,0.000000,0.000000
93.310482,-9474.636058,0.000000,153.219100
93.310808,-9326.594869,0.000000,0.000000
93.311135,-9474.636058,74.020594,0.000000
93.311461,-9548.656652,74.020594,0.000000
93.311788,-9474.636058,148.041188,0.000000
93.312114,-9400.615463,74.020594,306.438199
93.312441,-9474.636058,-222.061783,306.438199
93.312767,-9252.574275,148.041188,153.219100
93.313093,-9252.574275,148.041188,76.609550
93.313420,-9474.636058,0.000000,0.000000
93.313746,-9326.594869,296.082377,229.828649
93.314073,-9400.615463,0.000000,76.609550
93.314399,-9178.553681,0.000000,0.000000
93.314726,-9548.656652,0.000000,0.000000
93.315052,-9252.574275,0.000000,76.609550
93.315378,-9400.615463,222.061783,306.438199
93.315705,-9326.594869,0.000000,76.609550
93.316031,-9474.636058,296.082377,0.000000
93.316358,-9400.615463,148.041188,0.000000
93.316684,-9400.615463,74.020594,919.314598
93.317011,-9548.656652,74.020594,306.438199
93.317337,-9326.594869,148.041188,229.828649
93.317663,-9400.615463,148.041188,0.000000
93.317990,-9326.594869,222.061783,306.438199
93.318316,-9400.615463,148.041188,0.000000
93.318643,-9326.594869,0.000000,76.609550
93.318969,-9474.636058,74.020594,0.000000
93.319296,-9474.636058,148.041188,229.828649
93.319622,-9326.594869,74.020594,306.438199
93.319949,-9622.677246,0.000000,306.438199
93.320275,-9326.594869,148.041188,0.000000
93.320601,-9104.533087,296.082377,0.000000
93.320928,-9178.553681,222.061783,-229.828649
93.321254,-9178.553681,0.000000,153.219100
93.321581,-9474.636058,296.082377,0.000000
93.321907,-9474.636058,0.000000,229.828649
93.322234,-9474.636058,518.144159,229.828649
93.322560,-9622.677246,0.000000,76.609550
93.322886,-9474.636058,0.000000,306.438199
93.323213,-9326.594869,0.000000,0.000000
93.323539,-9696.697840,222.061783,153.219100
93.323866,-9252.574275,0.000000,459.657299
93.324192,-9474.636058,222.061783,0.000000
93.324519,-9770.718434,148.041188,0.000000
93.324845,-9400.615463,148.041188,0.000000
93.325171,-9548.656652,148.041188,229.828649
93.325498,-9326.594869,148.041188,153.219100
93.325824,-9548.656652,148.041188,0.000000
93.326151,-9474.636058,222.061783,153.219100
93.326477,-9474.636058,148.041188,0.000000
93.326804,-9548.656652,148.041188,153.219100
93.327130,-9400.615463,0.000000,153.219100
93.327457,-9326.594869,74.020594,0.000000
93.327783,-9400.615463,74.020594,229.828649
93.328109,-9104.533087,222.061783,76.609550
93.328436,-9326.594869,74.020594,0.000000
93.328762,-9548.656652,370.102971,153.219100
93.329089,-9548.656652,0.000000,383.047749
93.329415,-9104.533087,-296.082377,153.219100
93.329742,-9474.636058,74.020594,76.609550
93.330068,-9474.636058,0.000000,153.219100
93.330394,-9326.594869,296.082377,153.219100
93.330721,-9400.615463,74.020594,229.828649
93.331047,-9252.574275,0.000000,76.609550
93.331374,-9400.615463,0.000000,153.219100
93.331700,-9474.636058,0.000000,229.828649
93.332027,-9474.636058,148.041188,0.000000
93.332353,-9104.533087,0.000000,76.609550
93.332679,-9474.636058,74.020594,0.000000
93.333006,-9474.636058,148.041188,0.000000
93.333332,-9400.615463,222.061783,0.000000
93.333659,-9326.594869,592.164754,0.000000
93.333985,-9326.594869,0.000000,0.000000
93.334312,-9548.656652,0.000000,229.828649
93.334638,-9400.615463,148.041188,0.000000
93.334964,-9474.636058,148.041188,229.828649
93.335291,-9326.594869,148.041188,153.219100
93.335617,-9696.697840,74.020594,306.438199
93.335944,-9548.656652,0.000000,0.000000
93.336270,-9474.636058,222.061783,0.000000
93.336597,-9474.636058,-296.082377,0.000000
93.336923,-9400.615463,0.000000,153.219100
93.337250,-9400.615463,148.041188,153.219100
93.337576,-9326.594869,0.000000,229.828649
93.337902,-9474.636058,-222.061783,612.876398
93.338229,-9474.636058,74.020594,76.609550
93.338555,-9474.636058,0.000000,229.828649
93.338882,-9622.677246,222.061783,459.657299
93.339208,-9474.636058,0.000000,0.000000
93.339535,-9252.574275,0.000000,459.657299
93.339861,-9030.512492,148.041188,0.000000
93.340187,-9252.574275,0.000000,-153.219100
93.340514,-9474.636058,148.041188,0.000000
93.340840,-9030.512492,74.020594,0.000000
93.341167,-9178.553681,0.000000,153.219100
93.341493,-9474.636058,0.000000,0.000000
93.341820,-9474.636058,148.041188,0.000000
93.342146,-8956.491898,-74.020594,-306.438199
93.342472,-9474.636058,74.020594,153.219100
93.342799,-9548.656652,296.082377,0.000000
93.343125,-9400.615463,74.020594,0.000000
93.343452,-9326.594869,148.041188,229.828649
93.343778,-9252.574275,0.000000,0.000000
93.344105,-9400.615463,0.000000,306.438199
93.344431,-9252.574275,0.000000,153.219100
93.344757,-9474.636058,74.020594,76.609550
93.345084,-9548.656652,0.000000,383.047749
93.345410,-9770.718434,222.061783,76.609550
93.345737,-9548.656652,0.000000,0.000000
93.346063,-9622.677246,148.041188,229.828649
93.346389,-9474.636058,0.000000,842.705048
93.346716,-9326.594869,222.061783,229.828649
93.347042,-9326.594869,222.061783,0.000000
93.347368,-9400.615463,0.000000,459.657299
93.347695,-9400.615463,148.041188,0.000000
93.348021,-9474.636058,148.041188,0.000000
93.348348,-9104.533087,0.000000,0.000000
93.348674,-9400.615463,148.041188,0.000000
93.349000,-9622.677246,222.061783,76.609550
93.349327,-9030.512492,444.123565,0.000000
93.349653,-9474.636058,0.000000,76.609550
93.349979,-9400.615463,148.041188,153.219100
93.350306,-9326.594869,0.000000,229.828649
93.350632,-9474.636058,0.000000,306.438199
93.350959,-9770.718434,222.061783,459.657299
93.351285,-9326.594869,0.000000,153.219100
93.351611,-9252.574275,148.041188,0.000000
93.351938,-9474.636058,74.020594,0.000000
93.352264,-9622.677246,0.000000,0.000000
93.352591,-9252.574275,0.000000,0.000000
93.352917,-9400.615463,0.000000,0.000000
93.353243,-9178.553681,74.020594,229.828649
93.353570,-9326.594869,222.061783,536.266849
93.353896,-9548.656652,0.000000,229.828649
93.354222,-9474.636058,222.061783,76.609550
93.354549,-9696.697840,148.041188,229.828649
93.354875,-9548.656652,444.123565,0.000000
93.355202,-9326.594869,74.020594,229.828649
93.355528,-9400.615463,222.061783,229.828649
93.355854,-9400.615463,74.020594,306.438199
93.356181,-9400.615463,74.020594,76.609550
93.356507,-9400.615463,296.082377,-383.047749
93.356834,-9326.594869,222.061783,0.000000
93.357160,-9548.656652,0.000000,0.000000
93.357486,-9474.636058,296.082377,153.219100
93.357813,-9104.533087,0.000000,153.219100
93.358139,-9252.574275,0.000000,536.266849
93.358465,-9474.636058,74.020594,0.000000
93.358792,-9474.636058,0.000000,0.000000
93.359118,-9474.636058,296.082377,-306.438199
93.359445,-9474.636058,74.020594,-383.047749
93.359771,-9696.697840,74.020594,229.828649
93.360097,-9400.615463,296.082377,0.000000
93.360424,-9326.594869,148.041188,153.219100
93.360750,-9030.512492,148.041188,0.000000
93.361076,-9474.636058,0.000000,153.219100
93.361403,-9400.615463,74.020594,76.609550
93.361729,-9326.594869,148.041188,0.000000
93.362056,-8808.450710,0.000000,229.828649
93.362382,-9400.615463,148.041188,76.609550
93.362708,-9400.615463,-148.041188,306.438199
93.363035,-9548.656652,74.020594,0.000000
93.363361,-9474.636058,0.000000,153.219100
93.363688,-9474.636058,74.020594,76.609550
93.364014,-9474.636058,148.041188,0.000000
93.364340,-9400.615463,0.000000,153.219100
93.364667,-9474.636058,148.041188,0.000000
93.364993,-9474.636058,0.000000,153.219100
93.365319,-9474.636058,0.000000,0.000000
93.365646,-9326.594869,0.000000,0.000000
93.365972,-9178.553681,296.082377,76.609550
93.366299,-9474.636058,0.000000,459.657299
93.366625,-9474.636058,0.000000,383.047749
93.366951,-9474.636058,296.082377,0.000000
93.367278,-9474.636058,0.000000,306.438199
93.367604,-9548.656652,0.000000,229.828649
93.367931,-9474.636058,0.000000,383.047749
93.368257,-9548.656652,148.041188,0.000000
93.368583,-9474.636058,74.020594,306.438199
93.368910,-9326.594869,0.000000,-306.438199
93.369236,-8734.430116,148.041188,153.219100
93.369562,-9178.553681,0.000000,153.219100
93.369889,-9326.594869,74.020594,76.609550
93.370215,-9474.636058,0.000000,383.047749
93.370542,-9104.533087,0.000000,-383.047749
93.370868,-9474.636058,0.000000,76.609550
93.371194,-9326.594869,74.020594,76.609550
93.371521,-9400.615463,74.020594,76.609550
93.371847,-9622.677246,222.061783,153.219100
93.372173,-9326.594869,222.061783,0.000000
93.372500,-9400.615463,74.020594,0.000000
93.372826,-9474.636058,0.000000,-153.219100
93.373153,-9400.615463,296.082377,-306.438199
93.373479,-9252.574275,74.020594,459.657299
93.373805,-9400.615463,0.000000,229.828649
93.374132,-9326.594869,148.041188,0.000000
93.374458,-9474.636058,148.041188,0.000000
93.374785,-9474.636058,0.000000,536.266849
93.375111,-9400.615463,148.041188,0.000000
93.375437,-9548.656652,0.000000,76.609550
93.375764,-9178.553681,74.020594,229.828649
93.376090,-9474.636058,148.041188,76.609550
93.376416,-9252.574275,0.000000,306.438199
93.376743,-9474.636058,0.000000,306.438199
93.377069,-9474.636058,74.020594,0.000000
93.377396,-9474.636058,0.000000,0.000000
93.377722,-9178.553681,148.041188,-306.438199
93.378048,-9178.553681,0.000000,-76.609550
93.378375,-9474.636058,0.000000,0.000000
93.378701,-9400.615463,0.000000,306.438199
93.379028,-9474.636058,148.041188,153.219100
93.379354,-9622.677246,0.000000,536.266849
93.379680,-9548.656652,222.061783,229.828649
93.380007,-9400.615463,222.061783,306.438199
93.380333,-9326.594869,0.000000,76.609550
93.380659,-9400.615463,0.000000,229.828649
93.380986,-9326.594869,74.020594,153.219100
93.381312,-9178.553681,0.000000,153.219100
93.381639,-9400.615463,0.000000,0.000000
93.381965,-9326.594869,370.102971,306.438199
93.382291,-9548.656652,74.020594,153.219100
93.382618,-9622.677246,0.000000,306.438199
93.382944,-9400.615463,74.020594,229.828649
93.383270,-9474.636058,0.000000,612.876398
93.383597,-9474.636058,74.020594,536.266849
93.383923,-9548.656652,148.041188,0.000000
93.384250,-9474.636058,0.000000,0.000000
93.384576,-9622.677246,370.102971,-229.828649
93.384902,-9178.553681,444.123565,-76.609550
93.385229,-9474.636058,74.020594,0.000000
93.385555,-9474.636058,0.000000,0.000000
93.385882,-9474.636058,0.000000,459.657299
93.386208,-9548.656652,222.061783,306.438199
93.386534,-9474.636058,0.000000,306.438199
93.386861,-9474.636058,-296.082377,153.219100
93.387187,-9474.636058,148.041188,0.000000
93.387513,-9474.636058,74.020594,689.485948
93.387840,-9400.615463,148.041188,229.828649
93.388166,-9400.615463,0.000000,306.438199
93.388493,-9474.636058,222.061783,-229.828649
93.388819,-9474.636058,74.020594,153.219100
93.389145,-9474.636058,296.082377,-383.047749
93.389472,-9326.594869,0.000000,0.000000
93.389798,-9400.615463,0.000000,306.438199
93.390124,-9474.636058,0.000000,459.657299
93.390451,-9474.636058,296.082377,229.828649
93.390777,-9474.636058,222.061783,76.609550
93.391104,-9326.594869,0.000000,229.828649
93.391430,-9400.615463,296.082377,0.000000
93.391756,-9474.636058,0.000000,383.047749
93.392083,-9400.615463,74.020594,-306.438199
93.392409,-9622.677246,296.082377,153.219100
93.392736,-9178.553681,74.020594,0.000000
93.393062,-9326.594869,444.123565,-153.219100
93.393388,-9474.636058,0.000000,0.000000
93.393715,-9326.594869,296.082377,229.828649
93.394041,-9252.574275,0.000000,306.438199
93.394367,-9548.656652,0.000000,459.657299
93.394694,-9474.636058,0.000000,306.438199
93.395020,-9622.677246,222.061783,-229.828649
93.395347,-9622.677246,74.020594,383.047749
93.395673,-9622.677246,296.082377,76.609550
93.395999,-9474.636058,148.041188,0.000000
93.396326,-9326.594869,0.000000,306.438199
93.396652,-9326.594869,222.061783,0.000000
93.396979,-9400.615463,222.061783,0.000000
93.397305,-9400.615463,0.000000,0.000000
93.397631,-9474.636058,222.061783,0.000000
93.397958,-9326.594869,-222.061783,153.219100
93.398284,-9474.636058,74.020594,306.438199
93.398610,-9622.677246,0.000000,153.219100
93.398937,-9178.553681,148.041188,459.657299
93.399263,-9474.636058,0.000000,306.438199
93.399590,-9474.636058,296.082377,0.000000
93.399916,-9474.636058,74.020594,306.438199
93.400242,-9474.636058,0.000000,306.438199
93.400569,-9548.656652,148.041188,459.657299
93.400895,-9400.615463,0.000000,536.266849
93.401221,-9474.636058,0.000000,459.657299
93.401548,-9474.636058,0.000000,0.000000
93.401874,-9696.697840,0.000000,229.828649
93.402201,-9474.636058,-148.041188,153.219100
93.402527,-9400.615463,-222.061783,-229.828649
93.402853,-9326.594869,0.000000,0.000000
93.403180,-9326.594869,370.102971,306.438199
93.403506,-9474.636058,370.102971,0.000000
93.403833,-9474.636058,0.000000,76.609550
93.404159,-9548.656652,148.041188,229.828649
93.404485,-9622.677246,148.041188,76.609550
93.404812,-9696.697840,74.020594,0.000000
93.405138,-9400.615463,222.061783,229.828649
93.405464,-9326.594869,74.020594,306.438199
93.405791,-9326.594869,0.000000,229.828649
93.406117,-9104.533087,444.123565,0.000000
93.406444,-9400.615463,74.020594,-306.438199
93.406770,-9474.636058,0.000000,-536.266849
93.407096,-9326.594869,74.020594,0.000000
93.407423,-9548.656652,-148.041188,153.219100
93.407749,-9696.697840,148.041188,306.438199
93.408076,-9474.636058,296.082377,0.000000
93.408402,-9252.574275,148.041188,229.828649
93.408728,-9474.636058,222.061783,0.000000
93.409055,-9696.697840,0.000000,76.609550
93.409381,-9474.636058,0.000000,536.266849
93.409707,-9252.574275,0.000000,76.609550
93.410034,-9400.615463,74.020594,0.000000
93.410360,-9474.636058,222.061783,459.657299
93.410687,-9400.615463,74.020594,-229.828649
93.411013,-9252.574275,148.041188,0.000000
93.411339,-9400.615463,74.020594,0.000000
93.411666,-9326.594869,0.000000,459.657299
93.411992,-9400.615463,148.041188,383.047749
93.412318,-9622.677246,148.041188,383.047749
93.412645,-9474.636058,148.041188,76.609550
93.412971,-9474.636058,148.041188,76.609550
93.413298,-9326.594869,222.061783,-229.828649
93.413624,-9474.636058,0.000000,0.000000
93.413950,-9474.636058,222.061783,0.000000
93.414277,-9252.574275,0.000000,0.000000
93.414603,-9474.636058,370.102971,306.438199
93.414930,-9400.615463,0.000000,0.000000
93.415256,-9474.636058,0.000000,459.657299
93.415582,-9400.615463,0.000000,0.000000
93.415909,-9474.636058,0.000000,536.266849
93.416235,-9400.615463,0.000000,76.609550
93.416561,-9474.636058,222.061783,0.000000
93.416888,-9474.636058,0.000000,229.828649
93.417214,-9474.636058,222.061783,0.000000
93.417541,-9252.574275,74.020594,229.828649
93.417867,-9400.615463,0.000000,76.609550
93.418193,-9474.636058,0.000000,459.657299
93.418520,-9548.656652,148.041188,76.609550
93.418846,-9030.512492,296.082377,612.876398
93.419173,-9400.615463,296.082377,76.609550
93.419499,-9474.636058,0.000000,0.000000
93.419825,-9474.636058,0.000000,153.219100
93.420152,-9252.574275,222.061783,0.000000
93.420478,-9252.574275,148.041188,0.000000
93.420804,-9548.656652,444.123565,76.609550
93.421131,-9548.656652,296.082377,0.000000
93.421457,-9474.636058,296.082377,0.000000
93.421784,-9696.697840,0.000000,0.000000
93.422110,-9400.615463,74.020594,0.000000
93.422436,-9400.615463,148.041188,229.828649
93.422763,-9252.574275,0.000000,76.609550
93.423089,-9548.656652,370.102971,0.000000
93.423415,-9178.553681,0.000000,153.219100
93.423742,-9030.512492,0.000000,0.000000
93.424068,-9326.594869,74.020594,76.609550
93.424395,-9474.636058,74.020594,306.438199
93.424721,-9474.636058,222.061783,383.047749
93.425047,-9474.636058,0.000000,153.219100
93.425374,-9548.656652,222.061783,0.000000
93.425700,-9326.594869,0.000000,153.219100
93.426027,-8882.471304,0.000000,0.000000
93.426353,-9474.636058,148.041188,76.609550
93.426679,-9326.594869,74.020594,229.828649
93.427006,-9178.553681,222.061783,0.000000
93.427332,-9252.574275,74.020594,153.219100
93.427658,-9326.594869,296.082377,0.000000
93.427985,-9474.636058,148.041188,-306.438199
93.428311,-9474.636058,0.000000,0.000000
93.428638,-9770.718434,74.020594,0.000000
93.428964,-9474.636058,74.020594,383.047749
93.429290,-9474.636058,0.000000,306.438199
93.429617,-9548.656652,0.000000,383.047749
93.429943,-9400.615463,0.000000,0.000000
93.430270,-9474.636058,0.000000,229.828649
93.430596,-9474.636058,222.061783,153.219100
93.430922,-9030.512492,0.000000,0.000000
93.431249,-9474.636058,296.082377,0.000000
93.431575,-9400.615463,740.205942,0.000000
93.431901,-9400.615463,0.000000,306.438199
93.432228,-9474.636058,74.020594,0.000000
93.432554,-9474.636058,0.000000,0.000000
93.432881,-9400.615463,0.000000,229.828649
93.433207,-9252.574275,0.000000,383.047749
93.433533,-9474.636058,-222.061783,306.438199
93.433860,-9474.636058,0.000000,306.438199
93.434186,-9474.636058,0.000000,306.438199
93.434512,-9178.553681,74.020594,383.047749
93.434839,-9326.594869,0.000000,229.828649
93.435165,-9474.636058,74.020594,0.000000
93.435492,-9548.656652,0.000000,0.000000
93.435818,-9326.594869,-444.123565,153.219100
93.436144,-9474.636058,222.061783,0.000000
93.436471,-9548.656652,74.020594,76.609550
93.436797,-9252.574275,74.020594,229.828649
93.437124,-9400.615463,222.061783,76.609550
93.437450,-9178.553681,148.041188,229.828649
93.437776,-9400.615463,0.000000,306.438199
93.438103,-9474.636058,74.020594,76.609550
93.438429,-9474.636058,148.041188,76.609550
93.438755,-9252.574275,370.102971,0.000000
93.439082,-9474.636058,74.020594,229.828649
93.439408,-9252.574275,148.041188,0.000000
93.439735,-9474.636058,74.020594,0.000000
93.440061,-8882.471304,0.000000,229.828649
93.440387,-9104.533087,0.000000,0.000000
93.440714,-9400.615463,148.041188,0.000000
93.441040,-9474.636058,0.000000,0.000000
93.441367,-9474.636058,296.082377,0.000000
93.441693,-9474.636058,148.041188,-153.219100
93.442019,-9474.636058,0.000000,383.047749
93.442346,-9474.636058,74.020594,-306.438199
93.442672,-9474.636058,222.061783,153.219100
93.442998,-9252.574275,0.000000,-153.219100
93.443325,-9400.615463,74.020594,-306.438199
93.443651,-9474.636058,0.000000,76.609550
93.443978,-9474.636058,0.000000,0.000000
93.444304,-9252.574275,0.000000,612.876398
93.444630,-9400.615463,0.000000,229.828649
93.444957,-9548.656652,0.000000,229.828649
93.445283,-9548.656652,0.000000,153.219100
93.445610,-9696.697840,74.020594,229.828649
93.445936,-9400.615463,-222.061783,0.000000
93.446262,-9474.636058,74.020594,229.828649
93.446589,-9474.636058,0.000000,76.609550
93.446915,-9474.636058,148.041188,76.609550
93.447242,-9104.533087,370.102971,76.609550
93.447568,-9252.574275,0.000000,383.047749
93.447894,-9326.594869,0.000000,76.609550
93.448221,-9474.636058,0.000000,383.047749
93.448547,-9474.636058,148.041188,-76.609550
93.448874,-9326.594869,0.000000,229.828649
93.449200,-9400.615463,148.041188,0.000000
93.449526,-9400.615463,74.020594,383.047749
93.449853,-9622.677246,296.082377,0.000000
93.450179,-9844.739029,148.041188,0.000000
93.450506,-9400.615463,148.041188,229.828649
93.450832,-9400.615463,0.000000,459.657299
93.451158,-9178.553681,0.000000,383.047749
93.451485,-9696.697840,296.082377,153.219100
93.451811,-9474.636058,0.000000,306.438199
93.452138,-9326.594869,296.082377,0.000000
93.452464,-9178.553681,0.000000,0.000000
93.452790,-9474.636058,0.000000,76.609550
93.453117,-9548.656652,148.041188,459.657299
93.453443,-9474.636058,222.061783,76.609550
93.453770,-9474.636058,0.000000,306.438199
93.454096,-9400.615463,370.102971,0.000000
93.454422,-9030.512492,370.102971,0.000000
93.454749,-9622.677246,222.061783,-153.219100
93.455075,-9326.594869,0.000000,306.438199
93.455402,-9474.636058,74.020594,0.000000
93.455728,-8956.491898,74.020594,153.219100
93.456055,-9474.636058,222.061783,76.609550
93.456381,-9326.594869,0.000000,306.438199
93.456707,-9326.594869,0.000000,459.657299
93.457034,-9326.594869,296.082377,0.000000
93.457360,-9474.636058,0.000000,76.609550
93.457687,-9400.615463,0.000000,76.609550
93.458013,-9178.553681,74.020594,0.000000
93.458339,-9548.656652,222.061783,0.000000
93.458666,-9474.636058,0.000000,766.095498
93.458992,-9400.615463,296.082377,76.609550
93.459319,-9474.636058,0.000000,76.609550
93.459645,-9400.615463,0.000000,76.609550
93.459971,-9252.574275,222.061783,536.266849
93.460298,-9326.594869,0.000000,153.219100
93.460624,-9400.615463,0.000000,76.609550
93.460951,-9474.636058,148.041188,0.000000
93.461277,-9474.636058,222.061783,76.609550
93.461603,-9548.656652,-148.041188,-153.219100
93.461930,-9252.574275,0.000000,0.000000
93.462256,-9326.594869,0.000000,229.828649
93.462583,-9622.677246,0.000000,383.047749
93.462909,-9474.636058,0.000000,76.609550
93.463235,-9326.594869,0.000000,0.000000
93.463562,-9474.636058,0.000000,612.876398
93.463888,-9400.615463,0.000000,76.609550
93.464215,-9474.636058,-296.082377,0.000000
93.464541,-9326.594869,0.000000,383.047749
93.464867,-9326.594869,0.000000,76.609550
93.465194,-9252.574275,0.000000,153.219100
93.465520,-9252.574275,0.000000,0.000000
93.465847,-9474.636058,74.020594,229.828649
93.466173,-9326.594869,0.000000,0.000000
93.466499,-9474.636058,148.041188,0.000000
93.466826,-9400.615463,0.000000,153.219100
93.467152,-9548.656652,518.144159,76.609550
93.467479,-9474.636058,74.020594,-306.438199
93.467805,-9178.553681,0.000000,0.000000
93.468132,-9252.574275,296.082377,0.000000
93.468458,-9474.636058,592.164754,153.219100
93.468784,-9474.636058,370.102971,229.828649
93.469111,-9548.656652,74.020594,229.828649
93.469437,-9400.615463,148.041188,153.219100
93.469764,-9400.615463,148.041188,0.000000
93.470090,-9252.574275,370.102971,0.000000
93.470416,-9030.512492,0.000000,0.000000
93.470743,-9474.636058,148.041188,0.000000
93.471069,-9474.636058,222.061783,0.000000
93.471396,-9400.615463,222.061783,536.266849
93.471722,-9474.636058,0.000000,229.828649
93.472048,-9400.615463,296.082377,0.000000
93.472375,-9474.636058,222.061783,306.438199
93.472701,-9400.615463,0.000000,919.314598
93.473028,-9400.615463,0.000000,306.438199
93.473354,-9474.636058,444.123565,0.000000
93.473680,-9252.574275,0.000000,76.609550
93.474007,-9252.574275,148.041188,-229.828649
93.474333,-9178.553681,148.041188,229.828649
93.474660,-9548.656652,222.061783,0.000000
93.474986,-9326.594869,-222.061783,229.828649
93.475312,-9326.594869,0.000000,383.047749
93.475639,-9400.615463,148.041188,306.438199
93.475965,-9770.718434,0.000000,229.828649
93.476292,-9474.636058,0.000000,612.876398
93.476618,-9622.677246,296.082377,0.000000
93.476944,-9474.636058,0.000000,383.047749
93.477271,-9474.636058,148.041188,0.000000
93.477597,-9474.636058,0.000000,0.000000
93.477924,-9400.615463,0.000000,76.609550
93.478250,-9400.615463,-296.082377,0.000000
93.478576,-9770.718434,148.041188,0.000000
93.478903,-9326.594869,74.020594,76.609550
93.479229,-9178.553681,0.000000,229.828649
93.479556,-9548.656652,0.000000,0.000000
93.479882,-9548.656652,0.000000,536.266849
93.480209,-9696.697840,222.061783,0.000000
93.480535,-9474.636058,0.000000,383.047749
93.480861,-9474.636058,222.061783,229.828649
93.481188,-9548.656652,74.020594,76.609550
93.481514,-9400.615463,0.000000,0.000000
93.481841,-9474.636058,0.000000,229.828649
93.482167,-9474.636058,0.000000,383.047749
93.482493,-9252.574275,0.000000,383.047749
93.482820,-9030.512492,370.102971,0.000000
93.483146,-9252.574275,0.000000,0.000000
93.483473,-9252.574275,0.000000,-153.219100
93.483799,-9400.615463,74.020594,0.000000
93.484125,-9178.553681,222.061783,0.000000
93.484452,-9326.594869,74.020594,0.000000
93.484778,-9548.656652,222.061783,459.657299
93.485105,-9474.636058,222.061783,76.609550
93.485431,-9622.677246,296.082377,153.219100
93.485757,-9178.553681,222.061783,0.000000
93.486084,-9326.594869,0.000000,0.000000
93.486410,-9400.615463,222.061783,-153.219100
93.486737,-9252.574275,296.082377,-383.047749
93.487063,-9104.533087,-296.082377,0.000000
93.487389,-9326.594869,148.041188,0.000000
93.487716,-9400.615463,0.000000,229.828649
93.488042,-9474.636058,0.000000,229.828649
93.488369,-9548.656652,74.020594,383.047749
93.488695,-9474.636058,296.082377,0.000000
93.489021,-9474.636058,0.000000,383.047749
93.489348,-9400.615463,222.061783,306.438199
93.489674,-9326.594869,148.041188,0.000000
93.490001,-9844.739029,-296.082377,0.000000
93.490327,-9474.636058,0.000000,0.000000
93.490654,-9030.512492,74.020594,0.000000
93.490980,-9252.574275,74.020594,0.000000
93.491306,-9548.656652,74.020594,383.047749
93.491633,-9104.533087,0.000000,0.000000
93.491959,-9474.636058,0.000000,0.000000
93.492286,-9252.574275,0.000000,0.000000
93.492612,-9474.636058,222.061783,612.876398
93.492938,-9696.697840,74.020594,229.828649
93.493265,-9770.718434,0.000000,0.000000
93.493591,-9622.677246,0.000000,306.438199
93.493918,-9326.594869,74.020594,0.000000
93.494244,-9474.636058,222.061783,76.609550
93.494570,-9326.594869,0.000000,229.828649
93.494897,-9400.615463,0.000000,0.000000
93.495223,-9474.636058,0.000000,383.047749
93.495550,-8956.491898,-296.082377,0.000000
93.495876,-9326.594869,-370.102971,0.000000
93.496202,-9474.636058,148.041188,0.000000
93.496529,-9474.636058,0.000000,229.828649
93.496855,-9474.636058,222.061783,766.095498
93.497182,-9474.636058,0.000000,459.657299
93.497508,-9696.697840,148.041188,306.438199
93.497834,-9474.636058,370.102971,76.609550
93.498161,-9030.512492,0.000000,229.828649
93.498487,-9104.533087,370.102971,76.609550
93.498814,-9474.636058,74.020594,0.000000
93.499140,-9252.574275,0.000000,0.000000
93.499466,-9400.615463,222.061783,0.000000
93.499793,-9474.636058,518.144159,229.828649
93.500119,-9104.533087,148.041188,0.000000
93.500446,-9400.615463,296.082377,0.000000
93.500772,-9622.677246,370.102971,0.000000
93.501098,-9474.636058,0.000000,229.828649
93.501425,-9474.636058,148.041188,306.438199
93.501751,-9474.636058,296.082377,0.000000
93.502078,-9474.636058,74.020594,383.047749
93.502404,-9326.594869,74.020594,76.609550
93.502731,-9474.636058,222.061783,0.000000
93.503057,-9474.636058,296.082377,-229.828649
93.503383,-9474.636058,0.000000,229.828649
93.503710,-9178.553681,0.000000,76.609550
93.504036,-9474.636058,0.000000,0.000000
93.504363,-9474.636058,-148.041188,229.828649
93.504689,-9844.739029,296.082377,153.219100
93.505015,-9474.636058,0.000000,459.657299
93.505342,-9326.594869,148.041188,0.000000
93.505668,-9474.636058,222.061783,229.828649
93.505995,-9474.636058,74.020594,229.828649
93.506321,-9474.636058,0.000000,0.000000
93.506647,-9252.574275,74.020594,0.000000
93.506974,-9474.636058,74.020594,459.657299
93.507300,-9252.574275,0.000000,0.000000
93.507627,-9178.553681,0.000000,0.000000
93.507953,-9252.574275,0.000000,76.609550
93.508279,-9178.553681,0.000000,459.657299
93.508606,-9326.594869,74.020594,153.219100
93.508932,-9400.615463,0.000000,0.000000
93.509259,-9474.636058,0.000000,0.000000
93.509585,-9474.636058,0.000000,383.047749
93.509911,-9104.533087,74.020594,153.219100
93.510238,-9400.615463,0.000000,306.438199
93.510564,-9252.574275,0.000000,76.609550
93.510891,-9696.697840,148.041188,0.000000
93.511217,-9104.533087,0.000000,0.000000
93.511543,-9326.594869,-148.041188,-153.219100
93.511870,-9252.574275,0.000000,0.000000
93.512196,-9400.615463,0.000000,229.828649
93.512523,-9400.615463,-74.020594,306.438199
93.512849,-9474.636058,0.000000,229.828649
93.513175,-9548.656652,222.061783,76.609550
93.513502,-9474.636058,148.041188,76.609550
93.513828,-9326.594869,0.000000,229.828649
93.514155,-9474.636058,296.082377,0.000000
93.514481,-9474.636058,74.020594,153.219100
93.514808,-9326.594869,296.082377,0.000000
93.515134,-9252.574275,444.123565,0.000000
93.515460,-9252.574275,296.082377,0.000000
93.515787,-9400.615463,148.041188,0.000000
93.516113,-9252.574275,148.041188,229.828649
93.516440,-9400.615463,74.020594,306.438199
93.516766,-9400.615463,296.082377,229.828649
93.517092,-9622.677246,222.061783,459.657299
93.517419,-9326.594869,296.082377,306.438199
93.517745,-9474.636058,148.041188,306.438199
93.518072,-9474.636058,222.061783,76.609550
93.518398,-9400.615463,0.000000,0.000000
93.518724,-9400.615463,148.041188,0.000000
93.519051,-9178.553681,0.000000,229.828649
93.519377,-9474.636058,370.102971,0.000000
93.519704,-9474.636058,-370.102971,459.657299
93.520030,-9326.594869,148.041188,76.609550
93.520356,-9474.636058,0.000000,306.438199
93.520683,-9326.594869,0.000000,229.828649
93.521009,-9622.677246,74.020594,153.219100
93.521336,-9474.636058,0.000000,153.219100
93.521662,-9474.636058,74.020594,0.000000
93.521988,-9474.636058,74.020594,306.438199
93.522315,-9548.656652,148.041188,76.609550
93.522641,-9326.594869,0.000000,153.219100
93.522968,-9400.615463,-74.020594,229.828649
93.523294,-9252.574275,-74.020594,153.219100
93.523620,-9548.656652,222.061783,0.000000
93.523947,-9474.636058,0.000000,0.000000
93.524273,-9548.656652,222.061783,-306.438199
93.524600,-9326.594869,0.000000,-383.047749
93.524926,-9326.594869,0.000000,459.657299
93.525252,-9252.574275,222.061783,0.000000
93.525579,-9622.677246,222.061783,-153.219100
93.525905,-9326.594869,0.000000,153.219100
93.526232,-9474.636058,0.000000,0.000000
93.526558,-9474.636058,148.041188,0.000000
93.526885,-9548.656652,0.000000,0.000000
93.527211,-9548.656652,-74.020594,76.609550
93.527537,-9252.574275,148.041188,76.609550
93.527864,-9400.615463,148.041188,229.828649
93.528190,-9474.636058,0.000000,536.266849
93.528517,-9548.656652,0.000000,0.000000
93.528843,-9326.594869,0.000000,76.609550
93.529169,-9474.636058,148.041188,-306.438199
93.529496,-9326.594869,148.041188,229.828649
93.529822,-9474.636058,0.000000,306.438199
93.530149,-9252.574275,148.041188,0.000000
93.530475,-9474.636058,370.102971,0.000000
93.530801,-9400.615463,296.082377,0.000000
93.531128,-9252.574275,74.020594,306.438199
93.531454,-9400.615463,148.041188,0.000000
93.531781,-9400.615463,74.020594,0.000000
93.532107,-9474.636058,222.061783,229.828649
93.532433,-9474.636058,0.000000,536.266849
93.532760,-9474.636058,0.000000,306.438199
93.533086,-9474.636058,0.000000,153.219100
93.533413,-9474.636058,74.020594,0.000000
93.533739,-9326.594869,74.020594,153.219100
93.534065,-9104.533087,74.020594,0.000000
93.534392,-9474.636058,74.020594,0.000000
93.534718,-9400.615463,148.041188,76.609550
93.535045,-9474.636058,74.020594,0.000000
93.535371,-9252.574275,0.000000,383.047749
93.535697,-9252.574275,0.000000,153.219100
93.536024,-9474.636058,0.000000,229.828649
93.536350,-9474.636058,0.000000,76.609550
93.536677,-9474.636058,0.000000,-76.609550
93.537003,-9474.636058,148.041188,153.219100
93.537330,-9770.718434,74.020594,0.000000
93.537656,-9548.656652,0.000000,229.828649
93.537982,-9474.636058,0.000000,536.266849
93.538309,-9474.636058,0.000000,0.000000
93.538635,-9252.574275,0.000000,0.000000
93.538962,-9400.615463,0.000000,153.219100
93.539288,-9474.636058,0.000000,229.828649
93.539614,-9400.615463,0.000000,153.219100
93.539941,-9474.636058,0.000000,459.657299
93.540267,-9400.615463,222.061783,0.000000
93.540594,-9622.677246,74.020594,76.609550
93.540920,-9992.780217,0.000000,229.828649
93.541246,-9400.615463,0.000000,383.047749
93.541573,-9474.636058,0.000000,306.438199
93.541899,-9252.574275,148.041188,0.000000
93.542226,-9622.677246,0.000000,229.828649
93.542552,-9548.656652,0.000000,229.828649
93.542878,-9400.615463,0.000000,153.219100
93.543205,-9622.677246,0.000000,0.000000
93.543531,-9474.636058,222.061783,-229.828649
93.543858,-9252.574275,296.082377,-383.047749
93.544184,-9474.636058,74.020594,153.219100
93.544510,-9400.615463,74.020594,153.219100
93.544837,-9400.615463,148.041188,0.000000
93.545163,-9474.636058,0.000000,689.485948
93.545490,-9400.615463,74.020594,306.438199
93.545816,-9474.636058,370.102971,229.828649
93.546142,-9400.615463,0.000000,306.438199
93.546469,-9400.615463,296.082377,0.000000
93.546795,-9178.553681,74.020594,0.000000
93.547122,-9326.594869,296.082377,0.000000
93.547448,-9326.594869,0.000000,153.219100
93.547774,-9400.615463,296.082377,0.000000
93.548101,-8956.491898,148.041188,229.828649
93.548427,-9474.636058,222.061783,383.047749
93.548754,-9178.553681,444.123565,0.000000
93.549080,-9326.594869,148.041188,0.000000
93.549407,-9622.677246,370.102971,76.609550
93.549733,-9696.697840,444.123565,0.000000
93.550059,-9400.615463,0.000000,0.000000
93.550386,-9474.636058,74.020594,306.438199
93.550712,-9252.574275,0.000000,229.828649
93.551039,-9104.533087,-222.061783,76.609550
93.551365,-9326.594869,0.000000,0.000000
93.551691,-9252.574275,-148.041188,0.000000
93.552018,-9474.636058,0.000000,0.000000
93.552344,-9252.574275,370.102971,-76.609550
93.552671,-9474.636058,74.020594,153.219100
93.552997,-9400.615463,0.000000,0.000000
93.553323,-9326.594869,-296.082377,153.219100
93.553650,-9548.656652,0.000000,-153.219100
93.553976,-9474.636058,0.000000,306.438199
93.554303,-9548.656652,74.020594,76.609550
93.554629,-9474.636058,0.000000,153.219100
93.554955,-9326.594869,0.000000,153.219100
93.555282,-9548.656652,-222.061783,0.000000
93.555608,-9400.615463,0.000000,0.000000
93.555935,-9326.594869,-296.082377,229.828649
93.556261,-9326.594869,74.020594,306.438199
93.556587,-9474.636058,74.020594,536.266849
93.556914,-9474.636058,0.000000,383.047749
93.557240,-9622.677246,296.082377,0.000000
93.557567,-9252.574275,-148.041188,306.438199
93.557893,-9400.615463,222.061783,229.828649
93.558220,-9474.636058,0.000000,459.657299
93.558546,-9474.636058,0.000000,76.609550
93.558872,-9474.636058,0.000000,0.000000
93.559199,-9474.636058,0.000000,0.000000
93.559525,-9474.636058,148.041188,-229.828649
93.559852,-9474.636058,296.082377,0.000000
93.560178,-9474.636058,0.000000,76.609550
93.560504,-9252.574275,0.000000,0.000000
93.560831,-9104.533087,0.000000,229.828649
93.561157,-9326.594869,74.020594,306.438199
93.561484,-9474.636058,222.061783,383.047749
93.561810,-9474.636058,370.102971,76.609550
93.562136,-9474.636058,296.082377,0.000000
93.562463,-9252.574275,148.041188,0.000000
93.562789,-9622.677246,444.123565,76.609550
93.563116,-9400.615463,0.000000,76.609550
93.563442,-9252.574275,74.020594,0.000000
93.563768,-9474.636058,0.000000,229.828649
93.564095,-9178.553681,0.000000,229.828649
93.564421,-9548.656652,148.041188,0.000000
93.564748,-9400.615463,0.000000,153.219100
93.565074,-9178.553681,222.061783,76.609550
93.565400,-9474.636058,0.000000,0.000000
93.565727,-9548.656652,148.041188,0.000000
93.566053,-9400.615463,74.020594,153.219100
93.566380,-9474.636058,0.000000,76.609550
93.566706,-9178.553681,0.000000,229.828649
93.567032,-9326.594869,0.000000,383.047749
93.567359,-9622.677246,0.000000,306.438199
93.567685,-9548.656652,0.000000,153.219100
93.568012,-9326.594869,0.000000,229.828649
93.568338,-9326.594869,0.000000,229.828649
93.568665,-9474.636058,0.000000,0.000000
93.568991,-9474.636058,0.000000,0.000000
93.569317,-9844.739029,370.102971,383.047749
93.569644,-9548.656652,0.000000,0.000000
93.569970,-9474.636058,0.000000,76.609550
93.570297,-9474.636058,0.000000,459.657299
93.570623,-9400.615463,0.000000,306.438199
93.570949,-9474.636058,0.000000,306.438199
93.571276,-9178.553681,0.000000,306.438199
93.571602,-9622.677246,-74.020594,76.609550
93.571929,-9622.677246,222.061783,0.000000
93.572255,-9178.553681,222.061783,-229.828649
93.572581,-9104.533087,-222.061783,0.000000
93.572908,-9400.615463,0.000000,76.609550
93.573234,-9252.574275,0.000000,76.609550
93.573561,-9252.574275,74.020594,306.438199
93.573887,-9252.574275,74.020594,0.000000
93.574213,-9178.553681,74.020594,76.609550
93.574540,-9474.636058,0.000000,229.828649
93.574866,-9474.636058,74.020594,0.000000
93.575193,-9474.636058,148.041188,0.000000
93.575519,-9326.594869,148.041188,0.000000
93.575845,-9474.636058,296.082377,0.000000
93.576172,-9474.636058,0.000000,153.219100
93.576498,-9548.656652,222.061783,306.438199
93.576825,-9326.594869,296.082377,153.219100
93.577151,-9326.594869,148.041188,229.828649
93.577477,-9326.594869,0.000000,229.828649
93.577804,-9326.594869,0.000000,0.000000
93.578130,-9474.636058,296.082377,0.000000
93.578457,-9474.636058,148.041188,0.000000
93.578783,-9104.533087,296.082377,0.000000
93.579110,-9252.574275,0.000000,306.438199
93.579436,-9326.594869,296.082377,153.219100
93.579762,-9622.677246,222.061783,76.609550
93.580089,-9400.615463,0.000000,229.828649
93.580415,-9326.594869,74.020594,76.609550
93.580742,-9770.718434,296.082377,612.876398
93.581068,-9400.615463,0.000000,306.438199
93.581394,-9252.574275,370.102971,0.000000
93.581721,-9400.615463,0.000000,0.000000
93.582047,-9326.594869,74.020594,0.000000
93.582374,-9474.636058,74.020594,0.000000
93.582700,-9178.553681,0.000000,229.828649
93.583026,-9474.636058,296.082377,0.000000
93.583353,-9474.636058,0.000000,153.219100
93.583679,-9622.677246,74.020594,0.000000
93.584006,-9400.615463,0.000000,0.000000
93.584332,-9252.574275,148.041188,229.828649
93.584658,-9474.636058,0.000000,229.828649
93.584985,-9474.636058,0.000000,536.266849
93.585311,-9696.697840,0.000000,76.609550
93.585638,-9474.636058,0.000000,0.000000
93.585964,-9548.656652,296.082377,0.000000
93.586290,-9474.636058,0.000000,306.438199
93.586617,-9400.615463,0.000000,229.828649
93.586943,-9474.636058,0.000000,306.438199
93.587270,-9474.636058,0.000000,0.000000
93.587596,-9400.615463,0.000000,76.609550
93.587922,-9326.594869,0.000000,0.000000
93.588249,-9474.636058,148.041188,76.609550
93.588575,-9548.656652,-74.020594,0.000000
93.588902,-9326.594869,0.000000,612.876398
93.589228,-9548.656652,296.082377,229.828649
93.589555,-9400.615463,222.061783,153.219100
93.589881,-9400.615463,148.041188,76.609550
93.590207,-9326.594869,74.020594,229.828649
93.590534,-9548.656652,222.061783,306.438199
93.590860,-9474.636058,222.061783,0.000000
93.591187,-9400.615463,0.000000,153.219100
93.591513,-9474.636058,222.061783,-76.609550
93.591839,-9474.636058,74.020594,229.828649
93.592166,-9474.636058,370.102971,306.438199
93.592492,-9326.594869,148.041188,76.609550
93.592819,-9400.615463,0.000000,383.047749
93.593145,-9400.615463,74.020594,0.000000
93.593471,-9252.574275,0.000000,459.657299
93.593798,-9400.615463,0.000000,-76.609550
93.594124,-9548.656652,0.000000,306.438199
93.594451,-9548.656652,444.123565,0.000000
93.594777,-9252.574275,518.144159,0.000000
93.595103,-9252.574275,0.000000,76.609550
93.595430,-9474.636058,0.000000,76.609550
93.595756,-9400.615463,74.020594,153.219100
93.596083,-9474.636058,148.041188,0.000000
93.596409,-9474.636058,-296.082377,0.000000
93.596735,-9548.656652,0.000000,76.609550
93.597062,-9474.636058,0.000000,459.657299
93.597388,-9178.553681,148.041188,0.000000
93.597715,-9104.533087,0.000000,229.828649
93.598041,-9326.594869,74.020594,-153.219100
93.598367,-9400.615463,0.000000,153.219100
93.598694,-9474.636058,222.061783,153.219100
93.599020,-9400.615463,148.041188,0.000000
93.599347,-9326.594869,-296.082377,0.000000
93.599673,-9400.615463,0.000000,153.219100
93.600000,-9548.656652,0.000000,153.219100
93.600326,-9474.636058,0.000000,306.438199
93.600652,-8882.471304,148.041188,0.000000
93.600979,-9400.615463,0.000000,229.828649
93.601305,-9474.636058,0.000000,383.047749
93.601632,-9474.636058,0.000000,0.000000
93.601958,-9252.574275,222.061783,0.000000
93.602284,-9400.615463,0.000000,229.828649
93.602611,-9474.636058,148.041188,0.000000
93.602937,-9622.677246,0.000000,459.657299
93.603264,-9474.636058,0.000000,383.047749
93.603590,-9474.636058,148.041188,153.219100
93.603916,-9252.574275,0.000000,0.000000
93.604243,-9548.656652,74.020594,0.000000
93.604569,-9400.615463,-148.041188,0.000000
93.604896,-9622.677246,0.000000,689.485948
93.605222,-9400.615463,0.000000,76.609550
93.605548,-9474.636058,74.020594,0.000000
93.605875,-9474.636058,74.020594,76.609550
93.606201,-9548.656652,148.041188,0.000000
93.606528,-9474.636058,296.082377,0.000000
93.606854,-9474.636058,0.000000,306.438199
93.607180,-9474.636058,148.041188,306.438199
93.607507,-9474.636058,222.061783,76.609550
93.607833,-9400.615463,148.041188,0.000000
93.608160,-9400.615463,296.082377,76.609550
93.608486,-9400.615463,148.041188,76.609550
93.608812,-9400.615463,0.000000,459.657299
93.609139,-8956.491898,0.000000,0.000000
93.609465,-9622.677246,222.061783,0.000000
93.609792,-9474.636058,296.082377,0.000000
93.610118,-9548.656652,74.020594,76.609550
93.610445,-9474.636058,74.020594,76.609550
93.610771,-9400.615463,296.082377,0.000000
93.611097,-9326.594869,222.061783,0.000000
93.611424,-9252.574275,148.041188,76.609550
93.611750,-9400.615463,222.061783,0.000000
93.612077,-9474.636058,0.000000,153.219100
93.612403,-9326.594869,444.123565,0.000000
93.612729,-9474.636058,222.061783,0.000000
93.613056,-9474.636058,0.000000,153.219100
93.613382,-9474.636058,0.000000,229.828649
93.613709,-9326.594869,148.041188,0.000000
93.614035,-9252.574275,148.041188,229.828649
93.614361,-9252.574275,0.000000,0.000000
93.614688,-9622.677246,518.144159,0.000000
93.615014,-9326.594869,0.000000,0.000000
93.615341,-9622.677246,0.000000,383.047749
93.615667,-9178.553681,0.000000,229.828649
93.615993,-9104.533087,0.000000,229.828649
93.616320,-9548.656652,222.061783,0.000000
93.616646,-9474.636058,74.020594,76.609550
93.616973,-9252.574275,148.041188,-153.219100
93.617299,-9474.636058,0.000000,229.828649
93.617625,-9326.594869,74.020594,383.047749
93.617952,-9474.636058,0.000000,0.000000
93.618278,-9326.594869,0.000000,0.000000
93.618605,-9474.636058,0.000000,0.000000
93.618931,-9400.615463,0.000000,153.219100
93.619258,-9622.677246,0.000000,0.000000
93.619584,-9474.636058,0.000000,0.000000
93.619910,-9326.594869,0.000000,76.609550
93.620237,-9474.636058,0.000000,306.438199
93.620563,-9474.636058,74.020594,229.828649
93.620890,-9326.594869,0.000000,0.000000
93.621216,-9474.636058,0.000000,383.047749
93.621542,-9326.594869,148.041188,0.000000
93.621869,-9326.594869,370.102971,536.266849
93.622195,-9474.636058,0.000000,229.828649
93.622522,-9696.697840,-518.144159,612.876398
93.622848,-9622.677246,0.000000,383.047749
93.623174,-9252.574275,-74.020594,0.000000
93.623501,-9104.533087,0.000000,-229.828649
93.623827,-9178.553681,-222.061783,-306.438199
93.624154,-9252.574275,-74.020594,-536.266849
93.624480,-9252.574275,-148.041188,0.000000
93.624806,-8882.471304,-666.185348,0.000000
93.625133,-9844.739029,-518.144159,919.314598
93.625459,-10140.821405,-592.164754,229.828649
93.625786,-9178.553681,-814.226536,0.000000
93.626112,-9474.636058,-222.061783,153.219100
93.626438,-9548.656652,-666.185348,383.047749
93.626765,-9474.636058,-740.205942,306.438199
93.627091,-9548.656652,-962.267725,-459.657299
93.627418,-8808.450710,-1110.308913,-306.438199
93.627744,-8734.430116,-1184.329507,383.047749
93.628070,-9474.636058,-1258.350101,0.000000
93.628397,-9474.636058,-1776.494261,0.000000
93.628723,-9622.677246,-1776.494261,459.657299
93.629050,-9326.594869,-2146.597232,1072.533697
93.629376,-9918.759623,-1998.556043,612.876398
93.629703,-9622.677246,-2146.597232,0.000000
93.630029,-9696.697840,-1924.535449,-153.219100
93.630355,-8660.409521,-2368.659014,-842.705048
93.630682,-8956.491898,-2886.803174,-612.876398
93.631008,-9400.615463,-2738.761985,-1149.143247
93.631335,-9918.759623,-3330.926739,-1072.533697
93.631661,-8808.450710,-4145.153275,-766.095498
93.631987,-8512.368333,-4293.194464,-76.609550
93.632314,-9104.533087,-4367.215058,229.828649
93.632640,-9030.512492,-4293.194464,842.705048
93.632967,-9474.636058,-4145.153275,1455.581446
93.633293,-9770.718434,-3997.112087,2757.943793
93.633619,-9622.677246,-2590.720797,1762.019645
93.633946,-10066.800811,-2220.617826,842.705048
93.634272,-9474.636058,-2072.576638,-612.876398
93.634599,-9104.533087,-2220.617826,-842.705048
93.634925,-8586.388927,-3256.906145,-1149.143247
93.635251,-9030.512492,-3552.988522,-612.876398
93.635578,-9326.594869,-4071.132681,1072.533697
93.635904,-9844.739029,-3849.070898,1685.410096
93.636231,-10140.821405,-3701.029710,1378.971896
93.636557,-9844.739029,-3701.029710,459.657299
93.636883,-9770.718434,-3849.070898,76.609550
93.637210,-9400.615463,-3701.029710,459.657299
93.637536,-8956.491898,-2368.659014,1532.190996
93.637863,-8660.409521,-1036.288319,3064.381992
93.638189,-9326.594869,222.061783,2528.115143
93.638515,-9400.615463,888.247130,229.828649
93.638842,-9474.636058,370.102971,-3447.429741
93.639168,-9474.636058,-814.226536,-4136.915689
93.639495,-9326.594869,-1332.370696,-2987.772442
93.639821,-9548.656652,-1924.535449,229.828649
93.640148,-9918.759623,-2294.638420,2528.115143
93.640474,-8808.450710,-2368.659014,2528.115143
93.640800,-8808.450710,-2294.638420,1378.971896
93.641127,-10214.842000,-2146.597232,153.219100
93.641453,-11843.295072,518.144159,-919.314598
93.641780,-11029.068536,3404.947333,-536.266849
93.642106,-7920.203579,4885.359217,-459.657299
93.642432,-6513.812290,4663.297435,-612.876398
93.642759,-7328.038826,2812.782580,-2221.676944
93.643085,-8660.409521,1406.391290,-4290.134789
93.643412,-9030.512492,-666.185348,-2528.115143
93.643738,-9622.677246,-2072.576638,2068.457845
93.644064,-10288.862594,-3182.885551,6435.202183
93.644391,-10732.986159,-2812.782580,7201.297681
93.644717,-12583.501014,-370.102971,4979.620737
93.645044,-13027.624579,2590.720797,842.705048
93.645370,-11547.212695,4885.359217,-4749.792088
93.645696,-8290.306550,3330.926739,-7814.174080
93.646023,-6439.791695,2368.659014,-6971.469032
93.646349,-7031.956449,222.061783,-2911.162892
93.646675,-6439.791695,-1332.370696,2068.457845
93.647002,-6587.832884,-2738.761985,5286.058936
93.647328,-9548.656652,-3701.029710,7354.516781
93.647655,-12509.480420,-2294.638420,4826.401637
93.647981,-12065.356855,-1924.535449,-459.657299
93.648307,-10214.842000,-1036.288319,-3064.381992
93.648634,-8586.388927,-444.123565,-2681.334243
93.648960,-8438.347739,-888.247130,-536.266849
93.649287,-8142.265362,-1332.370696,229.828649
93.649613,-7846.182985,0.000000,383.047749
93.649939,-8808.450710,1406.391290,1685.410096
93.650266,-9844.739029,1184.329507,-306.438199
93.650592,-12139.377449,-592.164754,-2451.505594
93.650918,-11547.212695,-2664.741391,-1302.362347
93.651245,-9622.677246,-3923.091493,1762.019645
93.651571,-6883.915261,-7402.059420,4673.182538
93.651898,-7254.018232,-8290.306550,4826.401637
93.652224,-10288.862594,-5477.523971,2987.772442
93.652550,-11399.171507,-962.267725,-1608.800546
93.652877,-8512.368333,222.061783,-5669.106685
93.653203,-8512.368333,-370.102971,-6435.202183
93.653529,-12657.521608,0.000000,-2528.115143
93.653856,-12287.418637,222.061783,306.438199
93.654182,-6587.832884,-1110.308913,4060.306139
93.654509,-3997.112087,-3404.947333,5975.544884
93.654835,-8364.327145,-4737.318029,4903.011187
93.655161,-13841.851115,-5033.400406,-1532.190996
93.655488,-12287.418637,-4959.379811,-5515.887586
93.655814,-10214.842000,-5329.482782,-1455.581446
93.656141,-10584.944971,-4885.359217,2528.115143
93.656467,-10658.965565,-2220.617826,229.828649
93.656793,-6291.750507,-2220.617826,-3677.258390
93.657120,-3923.091493,-3627.009116,-1991.848295
93.657446,-7550.100608,-2886.803174,1608.800546
93.657772,-11399.171507,888.247130,459.657299
93.658099,-11103.089130,2442.679609,-76.609550
93.658425,-9252.574275,0.000000,4213.525239
93.658752,-8660.409521,-1776.494261,7124.688131
93.659078,-9844.739029,-3997.112087,1455.581446
93.659404,-10955.047942,-5699.585753,-4673.182538
93.659731,-11621.233289,-6143.709319,-3064.381992
93.660057,-10881.027347,-3701.029710,842.705048
93.660384,-6883.915261,-518.144159,0.000000
93.660710,-8216.285956,0.000000,-2604.724693
93.661036,-11399.171507,888.247130,-2068.457845
93.661363,-10288.862594,4219.173869,536.266849
93.661689,-6587.832884,4959.379811,689.485948
93.662015,-6365.771101,1406.391290,-919.314598
93.662342,-10436.903782,-2072.576638,1225.752797
93.662668,-12065.356855,-3552.988522,4136.915689
93.662995,-7550.100608,-2886.803174,2757.943793
93.663321,-9178.553681,-2072.576638,689.485948
93.663647,-13545.768739,-1036.288319,-995.924147
93.663974,-11473.192101,-740.205942,-3217.601092
93.664300,-7846.182985,-370.102971,-5132.839837
93.664626,-5995.668130,3330.926739,-4290.134789
93.664953,-7105.977043,4663.297435,-229.828649
93.665279,-9770.718434,2072.576638,3140.991542
93.665606,-9770.718434,-518.144159,3907.087040
93.665932,-10140.821405,888.247130,5286.058936
93.666258,-11103.089130,1332.370696,5056.230287
93.666585,-10214.842000,-222.061783,2451.505594
93.666911,-12509.480420,-1850.514855,1685.410096
93.667238,-13101.645173,-1850.514855,-1378.971896
93.667564,-8216.285956,-2442.679609,-4826.401637
93.667890,-4441.235652,-1998.556043,-5745.716235
93.668217,-5773.606348,-1554.432478,-5898.935335
93.668543,-9770.718434,-1850.514855,-3217.601092
93.668869,-10732.986159,0.000000,-229.828649
93.669196,-7179.997637,2072.576638,2604.724693
93.669522,-6883.915261,518.144159,6435.202183
93.669849,-11843.295072,-2664.741391,6205.373534
93.670175,-15396.283594,-2664.741391,4903.011187
93.670501,-12583.501014,148.041188,2374.896044
93.670828,-5921.647536,-1110.308913,-229.828649
93.671154,-6069.688724,-5329.482782,-2528.115143
93.671481,-10881.027347,-5403.503377,-4903.011187
93.671807,-11177.109724,-1184.329507,-7967.393179
93.672133,-5995.668130,-962.267725,-5056.230287
93.672460,-5403.503377,-4441.235652,1608.800546
93.672786,-9770.718434,-2516.700203,6741.640382
93.673112,-12657.521608,666.185348,4749.792088
93.673439,-9178.553681,-666.185348,1455.581446
93.673765,-8734.430116,-4737.318029,2834.553343
93.674092,-12509.480420,-4515.256246,4290.134789
93.674418,-13397.727550,-1036.288319,-2451.505594
93.674744,-8068.244768,-2294.638420,-6665.030833
93.675071,-6661.853478,-5107.421000,-1072.533697
93.675397,-9622.677246,-2960.823768,2374.896044
93.675723,-8956.491898,-148.041188,-4213.525239
93.676050,-8068.244768,-1110.308913,-7048.078582
93.676376,-10881.027347,-3404.947333,1838.629195
93.676703,-9696.697840,-2368.659014,9039.926876
93.677029,-7550.100608,-666.185348,6128.763984
93.677355,-8142.265362,-1036.288319,1225.752797
93.677682,-12065.356855,-2812.782580,3907.087040
93.678008,-13841.851115,-1184.329507,4366.744339
93.678335,-9844.739029,1258.350101,-4519.963438
93.678661,-8734.430116,1184.329507,-7660.954980
93.678987,-13101.645173,-2368.659014,-5209.449386
93.679314,-9696.697840,-1258.350101,-2374.896044
93.679640,-1850.514855,-666.185348,-3217.601092
93.679966,-4219.173869,-1184.329507,153.219100
93.680293,-11473.192101,-148.041188,5132.839837
93.680619,-10066.800811,2220.617826,5286.058936
93.680946,-6365.771101,2886.803174,2757.943793
93.681272,-9178.553681,1406.391290,306.438199
93.681598,-15322.262999,1110.308913,2681.334243
93.681925,-15692.365970,2738.761985,153.219100
93.682251,-6661.853478,3701.029710,-3140.991542
93.682578,-5773.606348,1776.494261,-1225.752797
93.682904,-10807.006753,1702.473667,-2451.505594
93.683230,-7920.203579,4145.153275,-6281.983084
93.683557,-5921.647536,3256.906145,-6358.592633
93.683883,-9770.718434,1036.288319,0.000000
93.684209,-11843.295072,1776.494261,4903.011187
93.684536,-7254.018232,3627.009116,5362.668486
93.684862,-5403.503377,2072.576638,4060.306139
93.685189,-11621.233289,1036.288319,5975.544884
93.685515,-16728.654289,4441.235652,4213.525239
93.685841,-11251.130318,6513.812290,-3294.210641
93.686168,-6957.935855,4589.276840,-5975.544884
93.686494,-10214.842000,1480.411884,-2451.505594
93.686820,-10362.883188,2368.659014,-2757.943793
93.687147,-4885.359217,2368.659014,-4519.963438
93.687473,-4811.338623,-148.041188,-995.924147
93.687800,-9548.656652,-148.041188,4673.182538
93.688126,-10584.944971,1776.494261,4213.525239
93.688452,-7772.162391,2442.679609,536.266849
93.688779,-9770.718434,0.000000,229.828649
93.689105,-15248.242405,-222.061783,4903.011187
93.689432,-12065.356855,1776.494261,3294.210641
93.689758,-5403.503377,1702.473667,-2451.505594
93.690084,-8364.327145,-740.205942,-3217.601092
93.690411,-12509.480420,-370.102971,-3294.210641
93.690737,-7846.182985,1628.453072,-5056.230287
93.691063,-4145.153275,740.205942,-5515.887586
93.691390,-8438.347739,-2590.720797,0.000000
93.691716,-12213.398043,-3478.967927,6052.154434
93.692043,-7402.059420,-1998.556043,6435.202183
93.692369,-4885.359217,-3034.844362,4749.792088
93.692695,-12287.418637,-4663.297435,5056.230287
93.693022,-16876.695478,-1776.494261,3600.648841
93.693348,-10955.047942,2294.638420,-1838.629195
93.693675,-7550.100608,1406.391290,-5515.887586
93.694001,-11843.295072,-2590.720797,-4749.792088
93.694327,-11769.274478,-1924.535449,-5209.449386
93.694654,-5329.482782,-1406.391290,-5209.449386
93.694980,-3404.947333,-3997.112087,-1149.143247
93.695306,-9178.553681,-5255.462188,5209.449386
93.695633,-11029.068536,-2960.823768,7048.078582
93.695959,-8068.244768,-1036.288319,4826.401637
93.696286,-9400.615463,-2590.720797,3217.601092
93.696612,-15100.201217,-3701.029710,3907.087040
93.696938,-14137.933492,-592.164754,2604.724693
93.697265,-7476.080014,74.020594,-2911.162892
93.697591,-6735.874072,-2294.638420,-4213.525239
93.697917,-11399.171507,-1258.350101,-2604.724693
93.698244,-9252.574275,1998.556043,-5056.230287
93.698570,-5255.462188,888.247130,-7124.688131
93.698897,-8068.244768,-2738.761985,-3983.696590
93.699223,-11029.068536,-3552.988522,3677.258390
93.699549,-7846.182985,-1776.494261,6052.154434
93.699876,-4811.338623,-2664.741391,4136.915689
93.700202,-10066.800811,-3627.009116,5745.716235
93.700529,-15248.242405,296.082377,5439.278036
93.700855,-10732.986159,4663.297435,-536.266849
93.701181,-7920.203579,3775.050304,-6511.811733
93.701508,-12657.521608,1036.288319,-5822.325785
93.701834,-12509.480420,2368.659014,-3370.820191
93.702160,-4219.173869,1998.556043,-3830.477490
93.702487,-3034.844362,-518.144159,-1762.019645
93.702813,-9844.739029,-1258.350101,2834.553343
93.703140,-10807.006753,666.185348,4366.744339
93.703466,-7105.977043,1480.411884,2221.676944
93.703792,-9326.594869,-592.164754,612.876398
93.704119,-16580.613101,74.020594,4290.134789
93.704445,-14582.057057,2368.659014,3677.258390
93.704772,-5995.668130,2886.803174,-1072.533697
93.705098,-6809.894666,1036.288319,-842.705048
93.705424,-12287.418637,2590.720797,-2451.505594
93.705751,-8956.491898,5033.400406,-5975.544884
93.706077,-5181.441594,3775.050304,-7431.126331
93.706403,-7698.141797,1110.308913,-2834.553343
93.706730,-11251.130318,592.164754,3217.601092
93.707056,-7254.018232,0.000000,4979.620737
93.707383,-5773.606348,-1036.288319,4519.963438
93.707709,-12435.459826,-1850.514855,6128.763984
93.708035,-16210.510130,1258.350101,5056.230287
93.708362,-9918.759623,4293.194464,-1225.752797
93.708688,-7772.162391,3182.885551,-5132.839837
93.709014,-11991.336260,1332.370696,-3524.039291
93.709341,-10140.821405,3256.906145,-4213.525239
93.709667,-4219.173869,2886.803174,-4136.915689
93.709994,-5255.462188,0.000000,-1762.019645
93.710320,-10955.047942,296.082377,2068.457845
93.710646,-10362.883188,1406.391290,3140.991542
93.710973,-6587.832884,1702.473667,1838.629195
93.711299,-9474.636058,-1036.288319,3217.601092
93.711626,-15988.448347,-666.185348,5822.325785
93.711952,-12139.377449,1628.453072,4136.915689
93.712278,-6883.915261,2442.679609,0.000000
93.712605,-9770.718434,592.164754,-1378.971896
93.712931,-13693.809927,1480.411884,-3907.087040
93.713257,-9326.594869,3775.050304,-7124.688131
93.713584,-4811.338623,2812.782580,-6588.421283
93.713910,-7698.141797,-1184.329507,-1838.629195
93.714237,-9844.739029,-2072.576638,2834.553343
93.714563,-6439.791695,-962.267725,3524.039291
93.714889,-5551.544565,-2960.823768,4443.353888
93.715216,-11843.295072,-4737.318029,5745.716235
93.715542,-13841.851115,-2368.659014,4979.620737
93.715869,-9474.636058,1924.535449,1072.533697
93.716195,-7698.141797,518.144159,-1455.581446
93.716521,-12139.377449,-2368.659014,-766.095498
93.716848,-11547.212695,-962.267725,-2145.067394
93.717174,-4441.235652,-74.020594,-4443.353888
93.717500,-4441.235652,-3182.885551,-2374.896044
93.717827,-10140.821405,-4589.276840,1685.410096
93.718153,-10436.903782,-1924.535449,3064.381992
93.718480,-6661.853478,-1184.329507,1838.629195
93.718806,-8808.450710,-3997.112087,1762.019645
93.719132,-14582.057057,-6069.688724,3370.820191
93.719459,-12805.562797,-2664.741391,2834.553343
93.719785,-6291.750507,-962.267725,-689.485948
93.720111,-7698.141797,-2516.700203,-842.705048
93.720438,-12805.562797,-1554.432478,0.000000
93.720764,-8586.388927,2368.659014,-3907.087040
93.721091,-5181.441594,2294.638420,-6205.373534
93.721417,-10362.883188,-1776.494261,-4213.525239
93.721743,-13101.645173,-1776.494261,459.657299
93.722070,-7994.224174,-444.123565,2298.286494
93.722396,-4737.318029,-2516.700203,2604.724693
93.722723,-11547.212695,-4293.194464,5515.887586
93.723049,-15544.324782,-1480.411884,4673.182538
93.723375,-9844.739029,3330.926739,-995.924147
93.723702,-8364.327145,2738.761985,-4596.572988
93.724028,-13101.645173,0.000000,-4290.134789
93.724354,-10881.027347,2072.576638,-3447.429741
93.724681,-3330.926739,2886.803174,-4826.401637
93.725007,-3923.091493,962.267725,-1532.190996
93.725334,-11251.130318,296.082377,3140.991542
93.725660,-11325.150913,2886.803174,2604.724693
93.725986,-6661.853478,3182.885551,1915.238745
93.726313,-9992.780217,296.082377,2068.457845
93.726639,-16136.489536,-814.226536,5132.839837
93.726966,-12287.418637,1850.514855,3600.648841
93.727292,-5551.544565,1924.535449,842.705048
93.727618,-8586.388927,1480.411884,842.705048
93.727945,-13027.624579,3256.906145,-1915.238745
93.728271,-8364.327145,6069.688724,-7048.078582
93.728597,-5403.503377,4515.256246,-8580.269578
93.728924,-9844.739029,1332.370696,-2834.553343
93.729250,-11621.233289,1184.329507,1991.848295
93.729577,-5477.523971,1776.494261,2374.896044
93.729903,-4145.153275,-222.061783,4749.792088
93.730229,-11917.315666,-1406.391290,7048.078582
93.730556,-14359.995275,814.226536,4213.525239
93.730882,-8882.471304,4071.132681,-1685.410096
93.731208,-8660.409521,2812.782580,-3447.429741
93.731535,-13693.809927,888.247130,-1072.533697
93.731861,-10066.800811,2664.741391,-2834.553343
93.732188,-1924.535449,2442.679609,-4290.134789
93.732514,-5033.400406,-370.102971,-842.705048
93.732840,-12657.521608,-1258.350101,1685.410096
93.733167,-10807.006753,1406.391290,383.047749
93.733493,-6587.832884,1554.432478,-383.047749
93.733820,-10140.821405,-1406.391290,3370.820191
93.734146,-15988.448347,-3478.967927,6052.154434
93.734472,-10807.006753,-444.123565,2604.724693
93.734799,-5033.400406,222.061783,0.000000
93.735125,-10140.821405,-1184.329507,995.924147
93.735451,-14137.933492,-296.082377,-1225.752797
93.735778,-8364.327145,3108.864956,-6435.202183
93.736104,-5255.462188,2442.679609,-5439.278036
93.736431,-9918.759623,-1702.473667,-766.095498
93.736757,-13101.645173,-2368.659014,2834.553343
93.737083,-7179.997637,-1184.329507,2451.505594
93.737410,-5847.626942,-2886.803174,3294.210641
93.737736,-12731.542202,-5329.482782,5515.887586
93.738063,-14063.912898,-2812.782580,2987.772442
93.738389,-8438.347739,1332.370696,-1455.581446
93.738715,-8142.265362,148.041188,-2757.943793
93.739042,-12731.542202,-2886.803174,-1378.971896
93.739368,-11251.130318,-962.267725,-2604.724693
93.739694,-3627.009116,222.061783,-4596.572988
93.740021,-4145.153275,-1850.514855,-2221.676944
93.740347,-11621.233289,-3256.906145,2145.067394
93.740674,-10510.924376,-740.205942,2145.067394
93.741000,-6069.688724,222.061783,995.924147
93.741326,-9696.697840,-2664.741391,2374.896044
93.741653,-14508.036463,-4441.235652,4519.963438
93.741979,-11325.150913,-1258.350101,2068.457845
93.742305,-5033.400406,-518.144159,-919.314598
93.742632,-8660.409521,-1628.453072,-306.438199
93.742958,-13989.892304,-666.185348,-995.924147
93.743285,-8660.409521,2960.823768,-5209.449386
93.743611,-5033.400406,2368.659014,-5592.497135
93.743937,-9474.636058,-740.205942,-2221.676944
93.744264,-12435.459826,-1628.453072,1915.238745
93.744590,-6365.771101,148.041188,2068.457845
93.744917,-4441.235652,-1184.329507,3140.991542
93.745243,-12213.398043,-2738.761985,5822.325785
93.745569,-14730.098246,-666.185348,3753.867940
93.745896,-8142.265362,2960.823768,-1378.971896
93.746222,-7920.203579,2368.659014,-2834.553343
93.746548,-13323.706956,518.144159,-919.314598
93.746875,-11695.253884,2442.679609,-1762.019645
93.747201,-4293.194464,2664.741391,-3830.477490
93.747528,-5107.421000,296.082377,-1532.190996
93.747854,-12583.501014,296.082377,1455.581446
93.748180,-11103.089130,2368.659014,76.609550
93.748507,-6809.894666,2516.700203,-842.705048
93.748833,-9770.718434,-444.123565,1455.581446
93.749160,-15026.180623,-740.205942,5209.449386
93.749486,-10732.986159,1776.494261,2374.896044
93.749812,-4737.318029,1702.473667,-536.266849
93.750139,-9844.739029,666.185348,842.705048
93.750465,-13989.892304,1850.514855,-153.219100
93.750792,-7179.997637,4293.194464,-4903.011187
93.751118,-5107.421000,3627.009116,-4596.572988
93.751444,-10955.047942,888.247130,-383.047749
93.751771,-12509.480420,1184.329507,2604.724693
93.752097,-6069.688724,1998.556043,1072.533697
93.752423,-5181.441594,0.000000,2145.067394
93.752750,-13545.768739,-2072.576638,5286.058936
93.753076,-14063.912898,518.144159,2757.943793
93.753403,-6365.771101,3256.906145,-2221.676944
93.753729,-7476.080014,1628.453072,-2834.553343
93.754055,-13397.727550,-148.041188,-766.095498
93.754382,-10288.862594,1702.473667,-3140.991542
93.754708,-3108.864956,2294.638420,-4060.306139
93.755035,-6217.729913,444.123565,0.000000
93.755361,-12509.480420,-592.164754,3294.210641
93.755687,-10510.924376,2294.638420,1532.190996
93.756014,-6143.709319,1998.556043,0.000000
93.756340,-10584.944971,-1036.288319,2681.334243
93.756667,-15470.304188,-2220.617826,4290.134789
93.756993,-10214.842000,-518.144159,1225.752797
93.757319,-5255.462188,-370.102971,-919.314598
93.757646,-10214.842000,-1628.453072,1455.581446
93.757972,-13841.851115,-296.082377,-919.314598
93.758298,-7920.203579,2590.720797,-4903.011187
93.758625,-5921.647536,1480.411884,-5056.230287
93.758951,-10955.047942,-1998.556043,-842.705048
93.759278,-12435.459826,-2590.720797,2374.896044
93.759604,-5551.544565,-888.247130,1455.581446
93.759930,-4811.338623,-2886.803174,3294.210641
93.760257,-12139.377449,-4811.338623,5822.325785
93.760583,-13397.727550,-2442.679609,3524.039291
93.760910,-8216.285956,1036.288319,-1838.629195
93.761236,-8216.285956,-296.082377,-2145.067394
93.761562,-13027.624579,-3182.885551,-459.657299
93.761889,-10732.986159,-1776.494261,-1378.971896
93.762215,-3256.906145,-814.226536,-2834.553343
93.762542,-4737.318029,-2812.782580,-1302.362347
93.762868,-11695.253884,-3627.009116,1838.629195
93.763194,-10362.883188,0.000000,0.000000
93.763521,-6661.853478,1184.329507,-1455.581446
93.763847,-10436.903782,-1924.535449,536.266849
93.764173,-15174.221811,-4663.297435,3294.210641
93.764500,-10658.965565,-2220.617826,2068.457845
93.764826,-4441.235652,-1258.350101,0.000000
93.765153,-8882.471304,-2590.720797,2068.457845
93.765479,-13619.789333,-1258.350101,1532.190996
93.765805,-7994.224174,2590.720797,-3064.381992
93.766132,-5699.585753,2368.659014,-4366.744339
93.766458,-11399.171507,-1110.308913,-2221.676944
93.766785,-13101.645173,-888.247130,612.876398
93.767111,-6661.853478,296.082377,0.000000
93.767437,-4441.235652,-740.205942,919.314598
93.767764,-12435.459826,-2516.700203,4903.011187
93.768090,-13841.851115,222.061783,3524.039291
93.768416,-7328.038826,4071.132681,-1378.971896
93.768743,-8068.244768,3034.844362,-3370.820191
93.769069,-14656.077652,0.000000,-1149.143247
93.769396,-11917.315666,1480.411884,-1685.410096
93.769722,-3627.009116,2516.700203,-3524.039291
93.770048,-5107.421000,1110.308913,76.609550
93.770375,-12731.542202,1850.514855,2987.772442
93.770701,-10288.862594,4515.256246,153.219100
93.771028,-6439.791695,4441.235652,-1762.019645
93.771354,-10214.842000,1998.556043,383.047749
93.771680,-15100.201217,962.267725,2681.334243
93.772007,-10066.800811,1924.535449,1149.143247
93.772333,-4219.173869,1406.391290,0.000000
93.772660,-9030.512492,222.061783,3217.601092
93.772986,-13027.624579,2368.659014,1225.752797
93.773312,-7920.203579,6143.709319,-4673.182538
93.773639,-6217.729913,4811.338623,-6128.763984
93.773965,-11917.315666,1702.473667,-2068.457845
93.774291,-12583.501014,592.164754,689.485948
93.774618,-5329.482782,962.267725,0.000000
93.774944,-4811.338623,-1110.308913,3753.867940
93.775271,-11547.212695,-2072.576638,7737.564530
93.775597,-12657.521608,222.061783,4979.620737
93.775923,-7254.018232,2812.782580,-689.485948
93.776250,-9474.636058,1110.308913,-1915.238745
93.776576,-14878.139434,-814.226536,-842.705048
93.776903,-10288.862594,-148.041188,-2451.505594
93.777229,-1554.432478,370.102971,-3753.867940
93.777555,-5847.626942,-2368.659014,766.095498
93.777882,-12953.603985,-2812.782580,2681.334243
93.778208,-10436.903782,592.164754,-536.266849
93.778535,-6735.874072,1776.494261,-2068.457845
93.778861,-11103.089130,-1776.494261,919.314598
93.779187,-15692.365970,-3627.009116,2834.553343
93.779514,-9696.697840,-2146.597232,766.095498
93.779840,-3701.029710,-1776.494261,689.485948
93.780166,-9622.677246,-3552.988522,3600.648841
93.780493,-13989.892304,-2146.597232,919.314598
93.780819,-8438.347739,1850.514855,-3677.258390
93.781146,-6513.812290,1480.411884,-5362.668486
93.781472,-11547.212695,-2072.576638,-1838.629195
93.781798,-12583.501014,-2368.659014,995.924147
93.782125,-6735.874072,-1554.432478,842.705048
93.782451,-4219.173869,-3034.844362,2681.334243
93.782778,-12065.356855,-4515.256246,6435.202183
93.783104,-13915.871710,-1776.494261,2757.943793
93.783430,-7698.141797,1628.453072,-3370.820191
93.783757,-8364.327145,888.247130,-4366.744339
93.784083,-14063.912898,-2664.741391,-995.924147
93.784410,-10510.924376,-1110.308913,-919.314598
93.784736,-3478.967927,296.082377,-1915.238745
93.785062,-4885.359217,-1554.432478,995.924147
93.785389,-12065.356855,-2072.576638,3983.696590
93.785715,-10214.842000,592.164754,612.876398
93.786041,-6439.791695,1628.453072,-1685.410096
93.786368,-11029.068536,-888.247130,383.047749
93.786694,-14656.077652,-1628.453072,3677.258390
93.787021,-8956.491898,296.082377,1838.629195
93.787347,-3701.029710,-296.082377,76.609550
93.787673,-9400.615463,-1480.411884,1225.752797
93.788000,-14508.036463,-370.102971,0.000000
93.788326,-8512.368333,3404.947333,-5209.449386
93.788653,-5255.462188,2960.823768,-6281.983084
93.788979,-10955.047942,0.000000,-1455.581446
93.789305,-12139.377449,148.041188,1072.533697
93.789632,-5255.462188,1332.370696,0.000000
93.789958,-4367.215058,-666.185348,2298.286494
93.790284,-12435.459826,-1258.350101,5056.230287
93.790611,-14137.933492,1628.453072,2834.553343
93.790937,-7624.121203,3478.967927,-2145.067394
93.791264,-8364.327145,2368.659014,-2528.115143
93.791590,-14434.015869,740.205942,536.266849
93.791916,-11325.150913,1850.514855,-995.924147
93.792243,-3256.906145,2368.659014,-3140.991542
93.792569,-6217.729913,-74.020594,229.828649
93.792896,-13027.624579,222.061783,3447.429741
93.793222,-10140.821405,3256.906145,-1072.533697
93.793548,-5921.647536,3256.906145,-3370.820191
93.793875,-10584.944971,148.041188,153.219100
93.794201,-15840.407159,-444.123565,3524.039291
93.794528,-9326.594869,1554.432478,766.095498
93.794854,-3997.112087,1036.288319,-306.438199
93.795180,-10066.800811,-296.082377,4060.306139
93.795507,-14137.933492,1480.411884,2374.896044
93.795833,-7994.224174,4293.194464,-3370.820191
93.796159,-6439.791695,3256.906145,-3983.696590
93.796486,-12731.542202,74.020594,459.657299
93.796812,-13101.645173,0.000000,1838.629195
93.797139,-4959.379811,370.102971,-383.047749
93.797465,-4737.318029,-1036.288319,1608.800546
93.797791,-13101.645173,-2146.597232,4903.011187
93.798118,-13693.809927,592.164754,1915.238745
93.798444,-6883.915261,2886.803174,-3140.991542
93.798771,-8068.244768,666.185348,-2604.724693
93.799097,-14211.954086,-1628.453072,0.000000
93.799423,-10140.821405,0.000000,-995.924147
93.799750,-2886.803174,222.061783,-2068.457845
93.800076,-6439.791695,-1406.391290,1838.629195
93.800403,-12435.459826,-1258.350101,4366.744339
93.800729,-9844.739029,1184.329507,-153.219100
93.801055,-6291.750507,1924.535449,-2987.772442
93.801382,-10288.862594,-1480.411884,-306.438199
93.801708,-14582.057057,-2960.823768,2298.286494
93.802034,-8808.450710,-1850.514855,689.485948
93.802361,-3478.967927,-1480.411884,0.000000
93.802687,-9030.512492,-2738.761985,2681.334243
93.803014,-13323.706956,-1628.453072,689.485948
93.803340,-8142.265362,2072.576638,-4596.572988
93.803666,-6217.729913,962.267725,-5592.497135
93.803993,-11769.274478,-2220.617826,-1685.410096
93.804319,-12805.562797,-2368.659014,1838.629195
93.804646,-5477.523971,-1332.370696,1149.143247
93.804972,-4441.235652,-2368.659014,3600.648841
93.805298,-11843.295072,-3775.050304,5745.716235
93.805625,-13175.665768,-1258.350101,3447.429741
93.805951,-8068.244768,1628.453072,-1838.629195
93.806278,-10066.800811,370.102971,-1991.848295
93.806604,-14582.057057,-1850.514855,153.219100
93.806930,-10955.047942,-370.102971,383.047749
93.807257,-3627.009116,-74.020594,-1685.410096
93.807583,-6069.688724,-2294.638420,153.219100
93.807909,-12805.562797,-1850.514855,2068.457845
93.808236,-11029.068536,1628.453072,-842.705048
93.808562,-6513.812290,1776.494261,-3294.210641
93.808889,-10955.047942,-1406.391290,-689.485948
93.809215,-14804.118840,-2368.659014,2681.334243
93.809541,-8956.491898,-222.061783,1838.629195
93.809868,-3256.906145,592.164754,459.657299
93.810194,-8734.430116,-814.226536,1915.238745
93.810521,-13545.768739,592.164754,612.876398
93.810847,-8438.347739,3923.091493,-3907.087040
93.811173,-6143.709319,2812.782580,-4903.011187
93.811500,-11991.336260,296.082377,-1532.190996
93.811826,-12509.480420,592.164754,1072.533697
93.812152,-4811.338623,1850.514855,689.485948
93.812479,-3923.091493,222.061783,1685.410096
93.812805,-12065.356855,-962.267725,4060.306139
93.813132,-13841.851115,1406.391290,1225.752797
93.813458,-7179.997637,4145.153275,-3677.258390
93.813784,-7772.162391,2072.576638,-3524.039291
93.814111,-13175.665768,222.061783,612.876398
93.814437,-9770.718434,2516.700203,0.000000
93.814764,-3330.926739,2590.720797,-919.314598
93.815090,-6809.894666,1036.288319,1455.581446
93.815416,-13249.686362,1776.494261,3140.991542
93.815743,-11399.171507,3997.112087,0.000000
93.816069,-7105.977043,3775.050304,-2374.896044
93.816396,-10881.027347,592.164754,1915.238745
93.816722,-14211.954086,0.000000,4826.401637
93.817048,-8512.368333,1406.391290,2145.067394
93.817375,-4737.318029,666.185348,0.000000
93.817701,-10732.986159,-518.144159,995.924147
93.818027,-13767.830521,1110.308913,0.000000
93.818354,-7476.080014,3182.885551,-4903.011187
93.818680,-5921.647536,1480.411884,-4060.306139
93.819007,-11991.336260,-1110.308913,919.314598
93.819333,-12139.377449,-1258.350101,2911.162892
93.819659,-4959.379811,74.020594,612.876398
93.819986,-5255.462188,-1036.288319,2068.457845
93.820312,-12361.439231,-1924.535449,4290.134789
93.820639,-13249.686362,740.205942,1532.190996
93.820965,-7179.997637,1924.535449,-3140.991542
93.821291,-8586.388927,-370.102971,-1991.848295
93.821618,-13841.851115,-2220.617826,1149.143247
93.821944,-9696.697840,-814.226536,-842.705048
93.822271,-3182.885551,0.000000,-2681.334243
93.822597,-6513.812290,-2590.720797,76.609550
93.822923,-12139.377449,-2072.576638,1378.971896
93.823250,-9992.780217,814.226536,-1302.362347
93.823576,-6513.812290,1184.329507,-3524.039291
93.823902,-10807.006753,-1924.535449,0.000000
93.824229,-14285.974681,-2442.679609,2374.896044
93.824555,-7994.224174,0.000000,536.266849
93.824882,-3849.070898,-148.041188,153.219100
93.825208,-10510.924376,-1702.473667,2145.067394
93.825534,-13397.727550,0.000000,1532.190996
93.825861,-8586.388927,2516.700203,-2451.505594
93.826187,-6809.894666,1406.391290,-3064.381992
93.826514,-12139.377449,-2146.597232,229.828649
93.826840,-12805.562797,-2368.659014,2451.505594
93.827166,-6513.812290,0.000000,1225.752797
93.827493,-5921.647536,-1998.556043,1762.019645
93.827819,-12731.542202,-3552.988522,3370.820191
93.828146,-13027.624579,-962.267725,1455.581446
93.828472,-6957.935855,1554.432478,-2757.943793
93.828798,-7846.182985,-1332.370696,-2911.162892
93.829125,-13249.686362,-3849.070898,842.705048
93.829451,-10584.944971,-1850.514855,536.266849
93.829777,-3404.947333,-666.185348,-766.095498
93.830104,-6439.791695,-2442.679609,459.657299
93.830430,-12065.356855,-2294.638420,2374.896044
93.830757,-10066.800811,592.164754,-76.609550
93.831083,-6957.935855,222.061783,-2451.505594
93.831409,-10288.862594,-2738.761985,229.828649
93.831736,-14211.954086,-2738.761985,3753.867940
93.832062,-8734.430116,-518.144159,2374.896044
93.832389,-3775.050304,-444.123565,-306.438199
93.832715,-10140.821405,-1702.473667,612.876398
93.833041,-13841.851115,370.102971,-1149.143247
93.833368,-8068.244768,3256.906145,-5132.839837
93.833694,-5773.606348,2812.782580,-5592.497135
93.834020,-11103.089130,74.020594,-1302.362347
93.834347,-12435.459826,444.123565,1915.238745
93.834673,-5995.668130,1628.453072,612.876398
93.835000,-5477.523971,592.164754,1762.019645
93.835326,-12805.562797,1628.453072,3907.087040
93.835652,-13471.748144,4145.153275,1532.190996
93.835979,-7772.162391,5033.400406,-2528.115143
93.836305,-9474.636058,3034.844362,-766.095498
93.836632,-13619.789333,2146.597232,1608.800546
93.836958,-10288.862594,3478.967927,459.657299
93.837284,-4737.318029,2590.720797,-1302.362347
93.837611,-7994.224174,1406.391290,459.657299
93.837937,-13545.768739,2368.659014,1762.019645
93.838264,-9918.759623,4219.173869,-2068.457845
93.838590,-5995.668130,3478.967927,-2221.676944
93.838916,-11325.150913,814.226536,1608.800546
93.839243,-13175.665768,592.164754,3370.820191
93.839569,-7772.162391,2368.659014,1149.143247
93.839895,-4663.297435,1110.308913,76.609550
93.840222,-10732.986159,148.041188,2221.676944
93.840548,-13101.645173,1850.514855,459.657299
93.840875,-7402.059420,3701.029710,-2757.943793
93.841201,-6587.832884,1776.494261,-1915.238745
93.841527,-11917.315666,-1036.288319,1302.362347
93.841854,-11621.233289,-148.041188,1762.019645
93.842180,-5403.503377,296.082377,-766.095498
93.842507,-5995.668130,-2220.617826,536.266849
93.842833,-12879.583391,-2812.782580,2911.162892
93.843159,-12509.480420,0.000000,0.000000
93.843486,-5329.482782,1776.494261,-3600.648841
93.843812,-7624.121203,-444.123565,-2221.676944
93.844139,-12953.603985,-2886.803174,229.828649
93.844465,-9548.656652,-1258.350101,-1149.143247
93.844791,-4737.318029,-888.247130,-1838.629195
93.845118,-7254.018232,-2442.679609,1225.752797
93.845444,-11769.274478,-2516.700203,2528.115143
93.845770,-9474.636058,0.000000,689.485948
93.846097,-6587.832884,518.144159,-1608.800546
93.846423,-11325.150913,-2590.720797,1378.971896
93.846750,-14656.077652,-3034.844362,2987.772442
93.847076,-8660.409521,-1554.432478,689.485948
93.847402,-5625.565159,-1702.473667,76.609550
93.847729,-10955.047942,-3182.885551,766.095498
93.848055,-12731.542202,-1776.494261,229.828649
93.848381,-8142.265362,1110.308913,-2757.943793
93.848708,-7031.956449,0.000000,-3064.381992
93.849034,-12731.542202,-2664.741391,76.609550
93.849361,-13249.686362,-2886.803174,1685.410096
93.849687,-5699.585753,-1036.288319,612.876398
93.850013,-5699.585753,-2516.700203,1685.410096
93.850340,-12509.480420,-3256.906145,4213.525239
93.850666,-13027.624579,-518.144159,1838.629195
93.850992,-7772.162391,1776.494261,-1915.238745
93.851319,-8660.409521,-518.144159,-1762.019645
93.851645,-13471.748144,-1776.494261,-153.219100
93.851972,-10288.862594,0.000000,-689.485948
93.852298,-4441.235652,444.123565,-1762.019645
93.852624,-7254.018232,-1924.535449,0.000000
93.852951,-12213.398043,-888.247130,2068.457845
93.853277,-9992.780217,2368.659014,-1838.629195
93.853603,-5551.544565,2072.576638,-3677.258390
93.853930,-9844.739029,-592.164754,-1762.019645
93.854256,-13323.706956,-1036.288319,1149.143247
93.854582,-7254.018232,1258.350101,76.609550
93.854909,-3775.050304,518.144159,0.000000
93.855235,-9622.677246,296.082377,2068.457845
93.855562,-12879.583391,2220.617826,1225.752797
93.855888,-8142.265362,4219.173869,-2451.505594
93.856214,-6957.935855,2812.782580,-2681.334243
93.856541,-12657.521608,1110.308913,459.657299
93.856867,-12435.459826,1628.453072,2221.676944
93.857193,-5625.565159,1850.514855,919.314598
93.857520,-6217.729913,296.082377,2145.067394
93.857846,-13545.768739,-370.102971,3677.258390
93.858173,-12805.562797,2886.803174,-536.266849
93.858499,-6069.688724,3997.112087,-3600.648841
93.858825,-8660.409521,2072.576638,-1762.019645
93.859152,-14508.036463,444.123565,1149.143247
93.859478,-9918.759623,1776.494261,0.000000
93.859804,-4145.153275,1258.350101,-612.876398
93.860131,-7994.224174,222.061783,2068.457845
93.860457,-12731.542202,1406.391290,2911.162892
93.860783,-10066.800811,3182.885551,-1225.752797
93.861110,-7254.018232,2294.638420,-2145.067394
93.861436,-11621.233289,-592.164754,1302.362347
93.861763,-13249.686362,-592.164754,2757.943793
93.862089,-7994.224174,296.082377,0.000000
93.862415,-5699.585753,-518.144159,0.000000
93.862742,-11029.068536,-1332.370696,1455.581446
93.863068,-12287.418637,296.082377,-383.047749
93.863394,-7105.977043,2368.659014,-5056.230287
93.863721,-7105.977043,666.185348,-4290.134789
93.864047,-12805.562797,-1776.494261,0.000000
93.864374,-10658.965565,-1850.514855,1225.752797
93.864700,-3775.050304,-888.247130,76.609550
93.865026,-5699.585753,-2220.617826,1915.238745
93.865353,-12583.501014,-2368.659014,3524.039291
93.865679,-11103.089130,222.061783,1225.752797
93.866005,-6809.894666,1406.391290,-1838.629195
93.866332,-9696.697840,-814.226536,76.609550
93.866658,-13619.789333,-2516.700203,2145.067394
93.866985,-9178.553681,-888.247130,229.828649
93.867311,-3997.112087,-222.061783,-383.047749
93.867637,-8586.388927,-2072.576638,1685.410096
93.867964,-13471.748144,-2146.597232,1149.143247
93.868290,-9326.594869,666.185348,-1838.629195
93.868616,-6365.771101,1184.329507,-2757.943793
93.868943,-11325.150913,-1924.535449,0.000000
93.869269,-13989.892304,-3034.844362,1838.629195
93.869595,-7624.121203,-592.164754,689.485948
93.869922,-4515.256246,-888.247130,612.876398
93.870248,-10881.027347,-2368.659014,2757.943793
93.870575,-13619.789333,-592.164754,459.657299
93.870901,-8734.430116,2146.597232,-2834.553343
93.871227,-7846.182985,666.185348,-2298.286494
93.871554,-12065.356855,-1998.556043,536.266849
93.871880,-11695.253884,-1258.350101,1455.581446
93.872206,-5921.647536,296.082377,0.000000
93.872533,-6439.791695,-1628.453072,383.047749
93.872859,-12879.583391,-2664.741391,1838.629195
93.873186,-12287.418637,-518.144159,-459.657299
93.873512,-6217.729913,1406.391290,-3677.258390
93.873838,-8290.306550,-1036.288319,-1608.800546
93.874165,-12731.542202,-2294.638420,1225.752797
93.874491,-9252.574275,0.000000,383.047749
93.874817,-3849.070898,0.000000,-995.924147
93.875144,-7402.059420,-1110.308913,612.876398
93.875470,-12953.603985,-296.082377,2068.457845
93.875796,-8734.430116,2146.597232,-612.876398
93.876123,-6291.750507,1776.494261,-995.924147
93.876449,-11029.068536,-370.102971,1838.629195
93.876776,-12805.562797,-148.041188,3524.039291
93.877102,-7846.182985,1110.308913,459.657299
93.877428,-5403.503377,592.164754,-995.924147
93.877755,-11843.295072,0.000000,1378.971896
93.878081,-13619.789333,1776.494261,-459.657299
93.878407,-6957.935855,3404.947333,-2834.553343
93.878734,-7105.977043,1850.514855,-1991.848295
93.879060,-13101.645173,666.185348,1225.752797
93.879387,-11843.295072,962.267725,1225.752797
93.879713,-4959.379811,1332.370696,-536.266849
93.880039,-6735.874072,148.041188,1838.629195
93.880366,-13175.665768,962.267725,3983.696590
93.880692,-12065.356855,3701.029710,229.828649
93.881018,-6957.935855,3997.112087,-2757.943793
93.881345,-9918.759623,1924.535449,-383.047749
93.881671,-13915.871710,1776.494261,1378.971896
93.881997,-9474.636058,1998.556043,-2145.067394
93.882324,-4737.318029,1258.350101,-2068.457845
93.882650,-9252.574275,-296.082377,1149.143247
93.882977,-12805.562797,666.185348,1838.629195
93.883303,-8438.347739,2664.741391,-2068.457845
93.883629,-6513.812290,2072.576638,-3217.601092
93.883956,-11843.295072,-666.185348,536.266849
93.884282,-13101.645173,-1258.350101,1072.533697
93.884608,-5255.462188,962.267725,-995.924147
93.884935,-3627.009116,-370.102971,383.047749
93.885261,-10288.862594,-1258.350101,3524.039291
93.885588,-11399.171507,148.041188,1149.143247
93.885914,-6587.832884,1480.411884,-2068.457845
93.886240,-8068.244768,148.041188,-1225.752797
93.886567,-12879.583391,-2294.638420,1225.752797
93.886893,-10584.944971,-1184.329507,1608.800546
93.887219,-4515.256246,-222.061783,229.828649
93.887546,-6735.874072,-2220.617826,2374.896044
93.887872,-14285.974681,-3034.844362,3600.648841
93.888198,-12139.377449,-148.041188,-383.047749
93.888525,-6513.812290,1554.432478,-3140.991542
93.888851,-10214.842000,-1406.391290,-919.314598
93.889178,-14211.954086,-3701.029710,459.657299
93.889504,-9252.574275,-1480.411884,0.000000
93.889830,-3627.009116,-814.226536,-612.876398
93.890157,-8586.388927,-2146.597232,1991.848295
93.890483,-13619.789333,-1776.494261,2374.896044
93.890809,-10214.842000,1036.288319,-1378.971896
93.891136,-6957.935855,74.020594,-2451.505594
93.891462,-11695.253884,-3330.926739,689.485948
93.891789,-14211.954086,-2590.720797,3140.991542
93.892115,-8216.285956,-740.205942,383.047749
93.892441,-5477.523971,-1924.535449,-76.609550
93.892768,-10288.862594,-3256.906145,1915.238745
93.893094,-12065.356855,-740.205942,-689.485948
93.893420,-7772.162391,962.267725,-4826.401637
93.893747,-7624.121203,-666.185348,-4673.182538
93.894073,-12435.459826,-2960.823768,76.609550
93.894400,-10732.986159,-2072.576638,1991.848295
93.894726,-3108.864956,-1110.308913,-306.438199
93.895052,-4885.359217,-2072.576638,1991.848295
93.895379,-12657.521608,-1110.308913,4366.744339
93.895705,-11843.295072,1628.453072,1838.629195
93.896031,-7476.080014,2220.617826,-2451.505594
93.896358,-9844.739029,814.226536,-1378.971896
93.896684,-13915.871710,592.164754,459.657299
93.897010,-8512.368333,1924.535449,-1302.362347
93.897337,-3256.906145,1850.514855,-1915.238745
93.897663,-9104.533087,148.041188,1225.752797
93.897990,-13767.830521,1628.453072,2681.334243
93.898316,-8956.491898,4071.132681,-1915.238745
93.898642,-5921.647536,2516.700203,-2374.896044
93.898969,-12509.480420,518.144159,1072.533697
93.899295,-13915.871710,518.144159,2451.505594
93.899621,-6069.688724,2220.617826,383.047749
93.899948,-3627.009116,2368.659014,612.876398
93.900274,-11325.150913,2220.617826,3524.039291
93.900601,-13471.748144,4219.173869,-76.609550
93.900927,-7772.162391,4811.338623,-4673.182538
93.901253,-8142.265362,2368.659014,-2451.505594
93.901580,-13989.892304,666.185348,1455.581446
93.901906,-11325.150913,1258.350101,1915.238745
93.902232,-4737.318029,1628.453072,536.266849
93.902559,-6587.832884,-296.082377,2834.553343
93.902885,-13471.748144,296.082377,4749.792088
93.903211,-11399.171507,3182.885551,-2221.676944
93.903538,-6217.729913,3256.906145,-5669.106685
93.903864,-10658.965565,296.082377,-2451.505594
93.904191,-13471.748144,-1628.453072,919.314598
93.904517,-7476.080014,74.020594,-383.047749
93.904843,-3330.926739,0.000000,153.219100
93.905170,-8882.471304,-1258.350101,3447.429741
93.905496,-13323.706956,-148.041188,3140.991542
93.905822,-8068.244768,2442.679609,-1455.581446
93.906149,-7031.956449,1332.370696,-2834.553343
93.906475,-12361.439231,-1628.453072,1302.362347
93.906802,-13397.727550,-2220.617826,2221.676944
93.907128,-6217.729913,-962.267725,-689.485948
93.907454,-4737.318029,-1554.432478,689.485948
93.907781,-11251.130318,-2220.617826,2451.505594
93.908107,-12139.377449,-74.020594,-612.876398
93.908433,-6809.894666,2072.576638,-4366.744339
93.908760,-7698.141797,0.000000,-2221.676944
93.909086,-13323.706956,-3256.906145,1455.581446
93.909412,-11621.233289,-2738.761985,2145.067394
93.909739,-3997.112087,-1554.432478,536.266849
93.910065,-6217.729913,-2442.679609,2681.334243
93.910392,-13175.665768,-2368.659014,3447.429741
93.910718,-11621.233289,148.041188,-76.609550
93.911044,-7698.141797,1480.411884,-3370.820191
93.911371,-10658.965565,-962.267725,-995.924147
93.911697,-14137.933492,-2664.741391,1302.362347
93.912023,-9326.594869,-1702.473667,153.219100
93.912350,-3997.112087,-1554.432478,-229.828649
93.912676,-8882.471304,-2812.782580,1685.410096
93.913003,-13027.624579,-1480.411884,1685.410096
93.913329,-9400.615463,1110.308913,-2145.067394
93.913655,-7476.080014,518.144159,-3983.696590
93.913982,-11843.295072,-2220.617826,-766.095498
93.914308,-12583.501014,-2368.659014,1302.362347
93.914634,-5995.668130,-666.185348,-306.438199
93.914961,-4071.132681,-2072.576638,306.438199
93.915287,-10732.986159,-2294.638420,2987.772442
93.915614,-12657.521608,444.123565,1072.533697
93.915940,-7328.038826,2664.741391,-3140.991542
93.916266,-7698.141797,740.205942,-3140.991542
93.916593,-12805.562797,-1036.288319,459.657299
93.916919,-10584.944971,0.000000,1532.190996
93.917245,-4219.173869,518.144159,76.609550
93.917572,-6587.832884,-740.205942,2068.457845
93.917898,-14137.933492,-888.247130,3677.258390
93.918224,-11399.171507,2368.659014,-229.828649
93.918551,-6439.791695,3701.029710,-4136.915689
93.918877,-9770.718434,740.205942,-1072.533697
93.919204,-14211.954086,-592.164754,1455.581446
93.919530,-8438.347739,1628.453072,842.705048
93.919856,-2960.823768,1850.514855,76.609550
93.920183,-8882.471304,740.205942,2911.162892
93.920509,-14211.954086,2442.679609,2911.162892
93.920835,-9474.636058,4441.235652,-2068.457845
93.921162,-6439.791695,3404.947333,-3140.991542
93.921488,-11991.336260,1258.350101,1302.362347
93.921815,-14137.933492,1702.473667,2681.334243
93.922141,-7328.038826,2590.720797,-229.828649
93.922467,-5921.647536,1184.329507,0.000000
93.922794,-10807.006753,666.185348,1378.971896
93.923120,-11399.171507,3256.906145,-995.924147
93.923446,-6957.935855,4293.194464,-5362.668486
93.923773,-8216.285956,2220.617826,-3600.648841
93.924099,-13841.851115,814.226536,1149.143247
93.924425,-10584.944971,1184.329507,612.876398
93.924752,-3108.864956,888.247130,-766.095498
93.925078,-6957.935855,-222.061783,1838.629195
93.925405,-13767.830521,-74.020594,3753.867940
93.925731,-10362.883188,2072.576638,229.828649
93.926057,-6735.874072,1628.453072,-2068.457845
93.926384,-10732.986159,-296.082377,76.609550
93.926710,-13841.851115,-1850.514855,1685.410096
93.927036,-8290.306550,-740.205942,536.266849
93.927363,-3552.988522,-592.164754,-842.705048
93.927689,-9178.553681,-2886.803174,2834.553343
93.928016,-13101.645173,-2072.576638,2221.676944
93.928342,-8142.265362,888.247130,-1915.238745
93.928668,-7031.956449,148.041188,-2221.676944
93.928995,-11917.315666,-3627.009116,1225.752797
93.929321,-12213.398043,-3701.029710,1915.238745
93.929647,-5773.606348,-2294.638420,0.000000
93.929974,-4663.297435,-2886.803174,459.657299
93.930300,-11251.130318,-3923.091493,3294.210641
93.930626,-12583.501014,-1998.556043,919.314598
93.930953,-7328.038826,666.185348,-2757.943793
93.931279,-7698.141797,-1110.308913,-2298.286494
93.931606,-12805.562797,-3330.926739,459.657299
93.931932,-10955.047942,-1850.514855,689.485948
93.932258,-5329.482782,-592.164754,-306.438199
93.932585,-7402.059420,-2368.659014,1072.533697
93.932911,-13249.686362,-3108.864956,2298.286494
93.933237,-11843.295072,-74.020594,-919.314598
93.933564,-6809.894666,1036.288319,-3983.696590
93.933890,-9622.677246,-1258.350101,-1608.800546
93.934217,-14285.974681,-2590.720797,1685.410096
93.934543,-8660.409521,-444.123565,0.000000
93.934869,-3775.050304,296.082377,-306.438199
93.935196,-9400.615463,-1406.391290,1302.362347
93.935522,-13545.768739,-1110.308913,1915.238745
93.935848,-9992.780217,1258.350101,-995.924147
93.936175,-6661.853478,1184.329507,-1072.533697
93.936501,-11843.295072,-962.267725,2834.553343
93.936828,-13619.789333,-740.205942,3753.867940
93.937154,-6883.915261,962.267725,842.705048
93.937480,-5551.544565,74.020594,76.609550
93.937807,-11547.212695,-1628.453072,1532.190996
93.938133,-11769.274478,1110.308913,-995.924147
93.938459,-5995.668130,2886.803174,-3983.696590
93.938786,-6217.729913,1110.308913,-2604.724693
93.939112,-12879.583391,-222.061783,1225.752797
93.939438,-11177.109724,444.123565,919.314598
93.939765,-4071.132681,814.226536,-919.314598
93.940091,-7031.956449,-370.102971,1378.971896
93.940418,-12805.562797,370.102971,3677.258390
93.940744,-10510.924376,2960.823768,612.876398
93.941070,-6069.688724,3404.947333,-2451.505594
93.941397,-9696.697840,1998.556043,-536.266849
93.941723,-14063.912898,2220.617826,536.266849
93.942049,-9030.512492,2590.720797,-2451.505594
93.942376,-4589.276840,1480.411884,-2528.115143
93.942702,-9918.759623,370.102971,2451.505594
93.943029,-12953.603985,2072.576638,2528.115143
93.943355,-7920.203579,3775.050304,-1455.581446
93.943681,-7402.059420,2368.659014,-1532.190996
93.944008,-13767.830521,740.205942,1915.238745
93.944334,-13693.809927,1184.329507,1225.752797
93.944660,-5847.626942,2072.576638,-1225.752797
93.944987,-5921.647536,962.267725,229.828649
93.945313,-13101.645173,1406.391290,2987.772442
93.945639,-12065.356855,2812.782580,-383.047749
93.945966,-6587.832884,3404.947333,-4060.306139
93.946292,-9030.512492,1480.411884,-1685.410096
93.946619,-14359.995275,0.000000,1685.410096
93.946945,-10362.883188,148.041188,766.095498
93.947271,-4071.132681,148.041188,383.047749
93.947598,-7772.162391,-1702.473667,4060.306139
93.947924,-13989.892304,-666.185348,4136.915689
93.948250,-10436.903782,1924.535449,-1762.019645
93.948577,-6217.729913,2294.638420,-4673.182538
93.948903,-11251.130318,-518.144159,-1149.143247
93.949229,-13693.809927,-1480.411884,76.609550
93.949556,-6957.935855,0.000000,-1838.629195
93.949882,-3108.864956,0.000000,-536.266849
93.950208,-8808.450710,-1850.514855,2987.772442
93.950535,-11843.295072,-666.185348,1915.238745
93.950861,-7846.182985,1406.391290,-2834.553343
93.951188,-7402.059420,814.226536,-2834.553343
93.951514,-12657.521608,-2294.638420,1378.971896
93.951840,-12509.480420,-1480.411884,2298.286494
93.952167,-6069.688724,-74.020594,76.609550
93.952493,-5329.482782,-1480.411884,0.000000
93.952819,-11843.295072,-2294.638420,1838.629195
93.953146,-11843.295072,0.000000,-1149.143247
93.953472,-6513.812290,2220.617826,-4749.792088
93.953798,-8216.285956,-222.061783,-2834.553343
93.954125,-12583.501014,-3034.844362,1915.238745
93.954451,-10362.883188,-2294.638420,2374.896044
93.954777,-4589.276840,-1850.514855,919.314598
93.955104,-7550.100608,-4219.173869,2604.724693
93.955430,-14211.954086,-3256.906145,4290.134789
93.955756,-10955.047942,148.041188,612.876398
93.956083,-6069.688724,962.267725,-2834.553343
93.956409,-9622.677246,-1554.432478,-1149.143247
93.956735,-14211.954086,-2294.638420,842.705048
93.957062,-9696.697840,-888.247130,-536.266849
93.957388,-4293.194464,-1776.494261,-1378.971896
93.957715,-9918.759623,-3256.906145,1762.019645
93.958041,-13397.727550,-1554.432478,1915.238745
93.958367,-7698.141797,1850.514855,-1302.362347
93.958694,-6883.915261,518.144159,-2298.286494
93.959020,-12509.480420,-2664.741391,919.314598
93.959346,-14137.933492,-2368.659014,2221.676944
93.959673,-6291.750507,-814.226536,-1225.752797
93.959999,-4589.276840,-888.247130,-306.438199
93.960325,-11325.150913,-1480.411884,2374.896044
93.960652,-11843.295072,1184.329507,306.438199
93.960978,-6809.894666,2590.720797,-3524.039291
93.961304,-7550.100608,1258.350101,-2451.505594
93.961631,-13989.892304,0.000000,1608.800546
93.961957,-11473.192101,444.123565,1455.581446
93.962283,-4293.194464,1110.308913,0.000000
93.962610,-7179.997637,-740.205942,2221.676944
93.962936,-13545.768739,74.020594,3600.648841
93.963262,-10584.944971,3627.009116,-1225.752797
93.963589,-6291.750507,3923.091493,-4596.572988
93.963915,-10140.821405,1924.535449,-1608.800546
93.964242,-13767.830521,1628.453072,306.438199
93.964568,-7105.977043,2812.782580,-1608.800546
93.964894,-2664.741391,2294.638420,-1532.190996
93.965221,-9474.636058,1406.391290,2451.505594
93.965547,-13323.706956,2590.720797,2451.505594
93.965873,-8142.265362,4219.173869,-1838.629195
93.966200,-6513.812290,3552.988522,-1838.629195
93.966526,-12879.583391,1850.514855,2298.286494
93.966852,-12879.583391,2738.761985,2451.505594
93.967179,-6513.812290,2590.720797,-612.876398
93.967505,-6217.729913,666.185348,459.657299
93.967831,-12879.583391,1110.308913,2145.067394
93.968158,-12139.377449,3552.988522,-842.705048
93.968484,-6439.791695,4145.153275,-4366.744339
93.968810,-8142.265362,1406.391290,-1915.238745
93.969137,-13693.809927,0.000000,2451.505594
93.969463,-10362.883188,814.226536,1378.971896
93.969789,-4441.235652,0.000000,0.000000
93.970116,-9030.512492,-1406.391290,3370.820191
93.970442,-13915.871710,-962.267725,4213.525239
93.970769,-9992.780217,666.185348,-306.438199
93.971095,-5921.647536,1850.514855,-2604.724693
93.971421,-10214.842000,-814.226536,-76.609550
93.971748,-13471.748144,-1036.288319,766.095498
93.972074,-7920.203579,-222.061783,-1378.971896
93.972400,-4885.359217,-1628.453072,-2145.067394
93.972727,-9992.780217,-3849.070898,1378.971896
93.973053,-12139.377449,-1850.514855,1225.752797
93.973379,-7105.977043,1110.308913,-2068.457845
93.973706,-6069.688724,0.000000,-2451.505594
93.974032,-12139.377449,-3701.029710,1302.362347
93.974358,-12583.501014,-3701.029710,1608.800546
93.974685,-5995.668130,-2146.597232,-1072.533697
93.975011,-5773.606348,-2812.782580,229.828649
93.975337,-11029.068536,-3256.906145,1762.019645
93.975664,-10955.047942,-1036.288319,842.705048
93.975990,-5921.647536,1258.350101,-2451.505594
93.976316,-8216.285956,-814.226536,-1608.800546
93.976643,-14211.954086,-3701.029710,919.314598
93.976969,-11695.253884,-3182.885551,1072.533697
93.977296,-5477.523971,-1702.473667,383.047749
93.977622,-7550.100608,-4219.173869,2374.896044
93.977948,-13619.789333,-4441.235652,4519.963438
93.978275,-10436.903782,-740.205942,1991.848295
93.978601,-5699.585753,1776.494261,-2604.724693
93.978927,-10436.903782,-296.082377,-2068.457845
93.979254,-14508.036463,-3182.885551,-919.314598
93.979580,-8068.244768,-888.247130,-2068.457845
93.979906,-3108.864956,-740.205942,-1685.410096
93.980233,-8142.265362,-2738.761985,1838.629195
93.980559,-11917.315666,-740.205942,3294.210641
93.980885,-9696.697840,2146.597232,0.000000
93.981212,-7031.956449,1406.391290,-1685.410096
93.981538,-11991.336260,-740.205942,0.000000
93.981864,-13841.851115,296.082377,1072.533697
93.982191,-7105.977043,518.144159,-1225.752797
93.982517,-5033.400406,-518.144159,-459.657299
93.982843,-11325.150913,-740.205942,2604.724693
93.983170,-11991.336260,1628.453072,995.924147
93.983496,-7476.080014,3849.070898,-3677.258390
93.983823,-8068.244768,2812.782580,-3064.381992
93.984149,-13323.706956,888.247130,1225.752797
93.984475,-10881.027347,1184.329507,1455.581446
93.984802,-4441.235652,888.247130,766.095498
93.985128,-7254.018232,148.041188,3447.429741
93.985454,-13323.706956,1850.514855,4903.011187
93.985781,-10510.924376,4663.297435,76.609550
93.986107,-6809.894666,3330.926739,-4060.306139
93.986433,-11547.212695,2072.576638,-2068.457845
93.986760,-14434.015869,2220.617826,995.924147
93.987086,-7105.977043,3552.988522,-1225.752797
93.987412,-3552.988522,1850.514855,-229.828649
93.987739,-9178.553681,592.164754,2298.286494
93.988065,-12731.542202,3034.844362,612.876398
