#time,accel_x,accel_y,accel_z
1370.096054,-9548.656652,296.082377,306.438199
1370.096379,-9400.615463,148.041188,0.000000
1370.096705,-9252.574275,0.000000,383.047749
1370.097030,-9474.636058,148.041188,-153.219100
1370.097356,-9400.615463,0.000000,229.828649
1370.097681,-9326.594869,74.020594,0.000000
1370.098007,-9474.636058,74.020594,153.219100
1370.098332,-9474.636058,222.061783,306.438199
1370.098658,-9400.615463,0.000000,536.266849
1370.098984,-9326.594869,74.020594,0.000000
1370.099309,-9622.677246,0.000000,153.219100
1370.099635,-9474.636058,-74.020594,229.828649
1370.099960,-9326.594869,0.000000,229.828649
1370.100286,-9474.636058,222.061783,536.266849
1370.100611,-9474.636058,222.061783,76.609550
1370.100937,-9474.636058,74.020594,0.000000
1370.101262,-9400.615463,74.020594,0.000000
1370.101588,-9326.594869,0.000000,306.438199
1370.101913,-9474.636058,148.041188,0.000000
1370.102239,-9474.636058,74.020594,306.438199
1370.102565,-9400.615463,148.041188,76.609550
1370.102890,-9474.636058,74.020594,306.438199
1370.103216,-9252.574275,148.041188,-229.828649
1370.103541,-9474.636058,74.020594,153.219100
1370.103867,-9400.615463,0.000000,0.000000
1370.104192,-9474.636058,0.000000,153.219100
1370.104518,-9474.636058,222.061783,459.657299
1370.104843,-9474.636058,0.000000,229.828649
1370.105169,-9474.636058,222.061783,76.609550
1370.105494,-9474.636058,74.020594,0.000000
1370.105820,-9326.594869,444.123565,0.000000
1370.106145,-9696.697840,74.020594,-153.219100
1370.106471,-9548.656652,0.000000,76.609550
1370.106797,-9252.574275,222.061783,76.609550
1370.107122,-9474.636058,74.020594,0.000000
1370.107448,-9326.594869,148.041188,153.219100
1370.107773,-9326.594869,370.102971,-306.438199
1370.108099,-9474.636058,222.061783,-459.657299
1370.108424,-9400.615463,222.061783,153.219100
1370.108750,-9178.553681,-296.082377,76.609550
1370.109075,-9474.636058,148.041188,459.657299
1370.109401,-9400.615463,0.000000,536.266849
1370.109726,-9326.594869,222.061783,76.609550
1370.110052,-9400.615463,0.000000,76.609550
1370.110378,-9474.636058,0.000000,0.000000
1370.110703,-9178.553681,74.020594,153.219100
1370.111029,-9474.636058,74.020594,-153.219100
1370.111354,-9252.574275,0.000000,0.000000
1370.111680,-9252.574275,0.000000,76.609550
1370.112005,-9252.574275,0.000000,153.219100
1370.112331,-9548.656652,222.061783,0.000000
1370.112656,-9474.636058,74.020594,383.047749
1370.112982,-9548.656652,148.041188,-153.219100
1370.113307,-9474.636058,296.082377,0.000000
1370.113633,-9474.636058,0.000000,306.438199
1370.113958,-9326.594869,0.000000,0.000000
1370.114284,-9400.615463,296.082377,76.609550
1370.114610,-9326.594869,222.061783,-229.828649
1370.114935,-9474.636058,0.000000,153.219100
1370.115261,-9400.615463,0.000000,0.000000
1370.115586,-9178.553681,0.000000,536.266849
1370.115912,-9474.636058,148.041188,76.609550
1370.116237,-9474.636058,-222.061783,0.000000
1370.116563,-9252.574275,0.000000,76.609550
1370.116888,-9474.636058,148.041188,153.219100
1370.117214,-9548.656652,518.144159,0.000000
1370.117539,-9474.636058,148.041188,153.219100
1370.117865,-9474.636058,148.041188,229.828649
1370.118191,-9104.533087,0.000000,383.047749
1370.118516,-9400.615463,296.082377,229.828649
1370.118842,-9548.656652,0.000000,153.219100
1370.119167,-9326.594869,74.020594,0.000000
1370.119493,-9474.636058,74.020594,153.219100
1370.119818,-9474.636058,0.000000,229.828649
1370.120144,-9178.553681,518.144159,0.000000
1370.120469,-9548.656652,74.020594,0.000000
1370.120795,-9326.594869,74.020594,0.000000
1370.121120,-9548.656652,0.000000,76.609550
1370.121446,-9326.594869,0.000000,-229.828649
1370.121772,-9474.636058,222.061783,0.000000
1370.122097,-9474.636058,222.061783,0.000000
1370.122423,-9178.553681,74.020594,459.657299
1370.122748,-9474.636058,222.061783,0.000000
1370.123074,-9400.615463,0.000000,76.609550
1370.123399,-9252.574275,296.082377,0.000000
1370.123725,-9400.615463,74.020594,153.219100
1370.124050,-9474.636058,0.000000,0.000000
1370.124376,-9252.574275,592.164754,306.438199
1370.124701,-9400.615463,222.061783,0.000000
1370.125027,-9252.574275,74.020594,306.438199
1370.125352,-9474.636058,74.020594,536.266849
1370.125678,-9326.594869,0.000000,0.000000
1370.126004,-9326.594869,148.041188,0.000000
1370.126329,-9326.594869,74.020594,76.609550
1370.126655,-9548.656652,222.061783,153.219100
1370.126980,-9474.636058,148.041188,153.219100
1370.127306,-9474.636058,592.164754,0.000000
1370.127631,-9326.594869,0.000000,0.000000
1370.127957,-9400.615463,74.020594,76.609550
1370.128282,-9400.615463,0.000000,-76.609550
1370.128608,-9326.594869,222.061783,383.047749
1370.128933,-9474.636058,74.020594,153.219100
1370.129259,-9400.615463,0.000000,459.657299
1370.129585,-9474.636058,296.082377,0.000000
1370.129910,-9474.636058,0.000000,0.000000
1370.130236,-9252.574275,148.041188,153.219100
1370.130561,-9400.615463,148.041188,229.828649
1370.130887,-9326.594869,0.000000,76.609550
1370.131212,-9326.594869,0.000000,383.047749
1370.131538,-9252.574275,74.020594,0.000000
1370.131863,-9474.636058,74.020594,0.000000
1370.132189,-9474.636058,148.041188,306.438199
1370.132514,-9474.636058,222.061783,76.609550
1370.132840,-9400.615463,74.020594,612.876398
1370.133165,-9474.636058,0.000000,612.876398
1370.133491,-9400.615463,222.061783,0.000000
1370.133817,-9252.574275,0.000000,153.219100
1370.134142,-9252.574275,0.000000,76.609550
1370.134468,-9474.636058,74.020594,229.828649
1370.134793,-9326.594869,0.000000,0.000000
1370.135119,-9474.636058,0.000000,76.609550
1370.135444,-9326.594869,222.061783,0.000000
1370.135770,-9696.697840,296.082377,536.266849
1370.136095,-9326.594869,0.000000,0.000000
1370.136421,-9474.636058,74.020594,0.000000
1370.136746,-9474.636058,0.000000,0.000000
1370.137072,-9474.636058,518.144159,0.000000
1370.137398,-9474.636058,222.061783,306.438199
1370.137723,-9326.594869,222.061783,0.000000
1370.138049,-9474.636058,0.000000,0.000000
1370.138374,-9178.553681,0.000000,76.609550
1370.138700,-9474.636058,296.082377,0.000000
1370.139025,-9400.615463,0.000000,153.219100
1370.139351,-9474.636058,74.020594,0.000000
1370.139676,-9622.677246,222.061783,0.000000
1370.140002,-9400.615463,222.061783,306.438199
1370.140327,-9178.553681,0.000000,0.000000
1370.140653,-9474.636058,222.061783,0.000000
1370.140978,-9178.553681,148.041188,0.000000
1370.141304,-9548.656652,666.185348,-153.219100
1370.141630,-9326.594869,0.000000,0.000000
1370.141955,-9474.636058,222.061783,0.000000
1370.142281,-9400.615463,222.061783,153.219100
1370.142606,-9474.636058,-148.041188,229.828649
1370.142932,-9400.615463,222.061783,0.000000
1370.143257,-9474.636058,148.041188,76.609550
1370.143583,-9474.636058,444.123565,0.000000
1370.143908,-9474.636058,0.000000,0.000000
1370.144234,-9474.636058,444.123565,0.000000
1370.144559,-9474.636058,0.000000,383.047749
1370.144885,-9400.615463,0.000000,76.609550
1370.145211,-9474.636058,0.000000,153.219100
1370.145536,-9548.656652,444.123565,0.000000
1370.145862,-9696.697840,0.000000,0.000000
1370.146187,-9400.615463,148.041188,0.000000
1370.146513,-9622.677246,0.000000,153.219100
1370.146838,-9104.533087,0.000000,76.609550
1370.147164,-9326.594869,148.041188,0.000000
1370.147489,-9474.636058,148.041188,-153.219100
1370.147815,-9474.636058,0.000000,0.000000
1370.148140,-9696.697840,296.082377,-76.609550
1370.148466,-9326.594869,296.082377,76.609550
1370.148792,-9326.594869,0.000000,153.219100
1370.149117,-9474.636058,296.082377,0.000000
1370.149443,-9252.574275,0.000000,0.000000
1370.149768,-9474.636058,74.020594,-306.438199
1370.150094,-9474.636058,222.061783,0.000000
1370.150419,-9548.656652,296.082377,0.000000
1370.150745,-9400.615463,222.061783,229.828649
1370.151070,-9326.594869,222.061783,229.828649
1370.151396,-9178.553681,222.061783,459.657299
1370.151721,-9474.636058,148.041188,76.609550
1370.152047,-9252.574275,148.041188,0.000000
1370.152372,-9474.636058,370.102971,0.000000
1370.152698,-9400.615463,518.144159,0.000000
1370.153024,-9474.636058,222.061783,0.000000
1370.153349,-9326.594869,0.000000,0.000000
1370.153675,-9622.677246,148.041188,0.000000
1370.154000,-9474.636058,0.000000,153.219100
1370.154326,-9326.594869,74.020594,536.266849
1370.154651,-9400.615463,74.020594,306.438199
1370.154977,-9474.636058,148.041188,0.000000
1370.155302,-9474.636058,74.020594,153.219100
1370.155628,-9622.677246,444.123565,229.828649
1370.155953,-9400.615463,0.000000,229.828649
1370.156279,-9548.656652,148.041188,0.000000
1370.156605,-9400.615463,0.000000,153.219100
1370.156930,-9252.574275,0.000000,383.047749
1370.157256,-9474.636058,148.041188,76.609550
1370.157581,-9474.636058,0.000000,0.000000
1370.157907,-9696.697840,0.000000,229.828649
1370.158232,-9252.574275,74.020594,0.000000
1370.158558,-9178.553681,0.000000,76.609550
1370.158883,-9178.553681,0.000000,0.000000
1370.159209,-9474.636058,222.061783,0.000000
1370.159534,-9178.553681,74.020594,0.000000
1370.159860,-9770.718434,222.061783,153.219100
1370.160185,-9400.615463,222.061783,0.000000
1370.160511,-9400.615463,148.041188,0.000000
1370.160836,-9474.636058,74.020594,306.438199
1370.161162,-9696.697840,0.000000,0.000000
1370.161487,-9622.677246,0.000000,0.000000
1370.161813,-9548.656652,148.041188,-153.219100
1370.162138,-9474.636058,0.000000,229.828649
1370.162464,-9252.574275,-74.020594,306.438199
1370.162789,-9474.636058,0.000000,153.219100
1370.163115,-9252.574275,0.000000,0.000000
1370.163440,-9474.636058,222.061783,153.219100
1370.163766,-9400.615463,0.000000,229.828649
1370.164091,-9844.739029,74.020594,459.657299
1370.164417,-9548.656652,74.020594,153.219100
1370.164742,-9252.574275,74.020594,0.000000
1370.165068,-9400.615463,0.000000,306.438199
1370.165393,-9326.594869,0.000000,153.219100
1370.165719,-9252.574275,74.020594,0.000000
1370.166044,-9326.594869,148.041188,76.609550
1370.166370,-9326.594869,296.082377,0.000000
1370.166696,-9474.636058,0.000000,229.828649
1370.167021,-9400.615463,148.041188,306.438199
1370.167347,-9326.594869,74.020594,383.047749
1370.167672,-9474.636058,0.000000,0.000000
1370.167998,-9696.697840,296.082377,0.000000
1370.168323,-9622.677246,148.041188,-383.047749
1370.168649,-9474.636058,74.020594,0.000000
1370.168974,-9326.594869,0.000000,76.609550
1370.169300,-9474.636058,0.000000,0.000000
1370.169625,-9252.574275,0.000000,229.828649
1370.169951,-9548.656652,0.000000,0.000000
1370.170276,-9548.656652,148.041188,229.828649
1370.170602,-9474.636058,74.020594,0.000000
1370.170927,-9474.636058,148.041188,76.609550
1370.171253,-9696.697840,0.000000,76.609550
1370.171578,-9622.677246,148.041188,229.828649
1370.171904,-9548.656652,296.082377,306.438199
1370.172229,-9548.656652,74.020594,0.000000
1370.172555,-9252.574275,0.000000,536.266849
1370.172880,-9400.615463,74.020594,153.219100
1370.173206,-9474.636058,0.000000,229.828649
1370.173531,-9474.636058,0.000000,306.438199
1370.173857,-9474.636058,296.082377,0.000000
1370.174182,-9696.697840,0.000000,229.828649
1370.174508,-9326.594869,74.020594,153.219100
1370.174833,-9474.636058,148.041188,0.000000
1370.175159,-9474.636058,148.041188,0.000000
1370.175484,-9178.553681,0.000000,536.266849
1370.175810,-9474.636058,148.041188,0.000000
1370.176135,-9400.615463,148.041188,0.000000
1370.176461,-9474.636058,296.082377,0.000000
1370.176786,-9474.636058,0.000000,76.609550
1370.177112,-9474.636058,-74.020594,0.000000
1370.177437,-9252.574275,0.000000,153.219100
1370.177763,-9400.615463,0.000000,229.828649
1370.178088,-9326.594869,74.020594,76.609550
1370.178414,-9474.636058,0.000000,153.219100
1370.178739,-9474.636058,222.061783,0.000000
1370.179065,-9400.615463,148.041188,383.047749
1370.179390,-9622.677246,222.061783,0.000000
1370.179716,-9474.636058,74.020594,0.000000
1370.180041,-9252.574275,74.020594,76.609550
1370.180367,-9400.615463,148.041188,-76.609550
1370.180692,-9474.636058,148.041188,76.609550
1370.181018,-9474.636058,0.000000,229.828649
1370.181344,-8956.491898,0.000000,76.609550
1370.181669,-9474.636058,74.020594,0.000000
1370.181995,-9400.615463,148.041188,153.219100
1370.182320,-9252.574275,0.000000,0.000000
1370.182646,-9326.594869,0.000000,-76.609550
1370.182971,-9178.553681,0.000000,0.000000
1370.183297,-9400.615463,296.082377,0.000000
1370.183622,-9474.636058,0.000000,76.609550
1370.183948,-9400.615463,-296.082377,229.828649
1370.184273,-9252.574275,296.082377,0.000000
1370.184599,-9474.636058,518.144159,0.000000
1370.184924,-9474.636058,0.000000,76.609550
1370.185250,-9548.656652,74.020594,0.000000
1370.185575,-9104.533087,222.061783,153.219100
1370.185901,-9474.636058,222.061783,0.000000
1370.186226,-9400.615463,296.082377,0.000000
1370.186552,-9400.615463,148.041188,0.000000
1370.186877,-9326.594869,0.000000,229.828649
1370.187203,-9400.615463,222.061783,229.828649
1370.187528,-9400.615463,296.082377,0.000000
1370.187854,-9474.636058,148.041188,0.000000
1370.188179,-9474.636058,222.061783,76.609550
1370.188505,-9400.615463,0.000000,76.609550
1370.188830,-9104.533087,0.000000,0.000000
1370.189156,-9474.636058,222.061783,0.000000
1370.189481,-9400.615463,74.020594,76.609550
1370.189807,-9474.636058,222.061783,0.000000
1370.190132,-9474.636058,0.000000,306.438199
1370.190458,-9474.636058,148.041188,76.609550
1370.190783,-9400.615463,74.020594,229.828649
1370.191109,-9326.594869,0.000000,689.485948
1370.191434,-9400.615463,74.020594,0.000000
1370.191760,-9474.636058,222.061783,153.219100
1370.192085,-9474.636058,74.020594,229.828649
1370.192411,-9548.656652,222.061783,153.219100
1370.192736,-9252.574275,74.020594,0.000000
1370.193062,-9548.656652,0.000000,76.609550
1370.193387,-9400.615463,148.041188,76.609550
1370.193713,-9400.615463,0.000000,383.047749
1370.194038,-9770.718434,296.082377,0.000000
1370.194364,-9474.636058,222.061783,229.828649
1370.194689,-9326.594869,0.000000,153.219100
1370.195015,-9474.636058,296.082377,0.000000
1370.195340,-9400.615463,0.000000,306.438199
1370.195666,-9400.615463,0.000000,229.828649
1370.195992,-9474.636058,148.041188,0.000000
1370.196317,-9474.636058,148.041188,0.000000
1370.196643,-9178.553681,0.000000,0.000000
1370.196968,-9104.533087,0.000000,0.000000
1370.197294,-9400.615463,148.041188,-306.438199
1370.197619,-9400.615463,148.041188,0.000000
1370.197945,-9474.636058,0.000000,306.438199
1370.198270,-9252.574275,592.164754,536.266849
1370.198596,-9326.594869,148.041188,153.219100
1370.198921,-9474.636058,148.041188,76.609550
1370.199247,-9326.594869,222.061783,0.000000
1370.199572,-9474.636058,148.041188,612.876398
1370.199898,-9178.553681,296.082377,0.000000
1370.200223,-9474.636058,222.061783,229.828649
1370.200549,-9178.553681,0.000000,0.000000
1370.200874,-9252.574275,370.102971,0.000000
1370.201200,-9178.553681,0.000000,0.000000
1370.201525,-9326.594869,0.000000,306.438199
1370.201851,-9474.636058,0.000000,0.000000
1370.202176,-9400.615463,222.061783,229.828649
1370.202502,-9770.718434,74.020594,689.485948
1370.202827,-9400.615463,74.020594,0.000000
1370.203153,-9548.656652,148.041188,0.000000
1370.203478,-9474.636058,370.102971,76.609550
1370.203804,-9474.636058,148.041188,612.876398
1370.204129,-9400.615463,0.000000,153.219100
1370.204455,-9400.615463,74.020594,-153.219100
1370.204780,-9548.656652,222.061783,0.000000
1370.205106,-9548.656652,148.041188,153.219100
1370.205431,-9252.574275,74.020594,383.047749
1370.205757,-9252.574275,74.020594,306.438199
1370.206082,-9548.656652,0.000000,306.438199
1370.206408,-9400.615463,222.061783,153.219100
1370.206733,-9474.636058,0.000000,383.047749
1370.207059,-9252.574275,0.000000,76.609550
1370.207384,-9622.677246,222.061783,0.000000
1370.207710,-9400.615463,0.000000,0.000000
1370.208035,-9326.594869,0.000000,0.000000
1370.208361,-9400.615463,0.000000,-153.219100
1370.208686,-9252.574275,0.000000,0.000000
1370.209012,-9400.615463,0.000000,153.219100
1370.209337,-9400.615463,0.000000,153.219100
1370.209663,-9178.553681,-222.061783,229.828649
1370.209988,-9474.636058,0.000000,0.000000
1370.210314,-9400.615463,0.000000,0.000000
1370.210640,-9474.636058,74.020594,153.219100
1370.210965,-9474.636058,-222.061783,0.000000
1370.211291,-9400.615463,0.000000,0.000000
1370.211616,-9474.636058,74.020594,0.000000
1370.211942,-9178.553681,0.000000,0.000000
1370.212267,-9474.636058,0.000000,0.000000
1370.212593,-9030.512492,0.000000,0.000000
1370.212918,-9474.636058,0.000000,0.000000
1370.213244,-9178.553681,0.000000,0.000000
1370.213569,-9474.636058,518.144159,0.000000
1370.213895,-9252.574275,296.082377,-229.828649
1370.214220,-9622.677246,222.061783,0.000000
1370.214546,-9400.615463,444.123565,153.219100
1370.214871,-9474.636058,0.000000,76.609550
1370.215197,-9474.636058,444.123565,0.000000
1370.215522,-9178.553681,296.082377,0.000000
1370.215848,-9474.636058,222.061783,153.219100
1370.216173,-9178.553681,0.000000,76.609550
1370.216499,-9326.594869,370.102971,0.000000
1370.216824,-9252.574275,0.000000,153.219100
1370.217150,-9474.636058,222.061783,383.047749
1370.217475,-9326.594869,296.082377,0.000000
1370.217801,-9400.615463,148.041188,0.000000
1370.218126,-9252.574275,370.102971,0.000000
1370.218452,-9474.636058,370.102971,0.000000
1370.218777,-9326.594869,0.000000,229.828649
1370.219103,-9400.615463,592.164754,-383.047749
1370.219428,-9326.594869,0.000000,0.000000
1370.219754,-9326.594869,296.082377,0.000000
1370.220079,-9474.636058,148.041188,153.219100
1370.220405,-9474.636058,0.000000,306.438199
1370.220730,-9400.615463,222.061783,229.828649
1370.221056,-9400.615463,74.020594,0.000000
1370.221381,-9326.594869,296.082377,0.000000
1370.221707,-9474.636058,148.041188,0.000000
1370.222032,-9326.594869,74.020594,229.828649
1370.222358,-9326.594869,-148.041188,1072.533697
1370.222683,-9474.636058,148.041188,0.000000
1370.223009,-9400.615463,222.061783,0.000000
1370.223334,-9400.615463,0.000000,306.438199
1370.223660,-9474.636058,148.041188,0.000000
1370.223985,-9178.553681,0.000000,76.609550
1370.224311,-9400.615463,74.020594,0.000000
1370.224636,-9400.615463,0.000000,229.828649
1370.224962,-9474.636058,74.020594,229.828649
1370.225288,-9474.636058,0.000000,229.828649
1370.225613,-9474.636058,74.020594,0.000000
1370.225939,-9474.636058,74.020594,76.609550
1370.226264,-9474.636058,0.000000,383.047749
1370.226590,-9474.636058,0.000000,536.266849
1370.226915,-9252.574275,74.020594,76.609550
1370.227241,-9400.615463,296.082377,-306.438199
1370.227566,-9400.615463,0.000000,76.609550
1370.227892,-9326.594869,148.041188,76.609550
1370.228217,-9252.574275,148.041188,-153.219100
1370.228543,-9326.594869,0.000000,0.000000
1370.228868,-9474.636058,148.041188,306.438199
1370.229194,-9178.553681,148.041188,76.609550
1370.229519,-9326.594869,0.000000,229.828649
1370.229845,-9178.553681,74.020594,0.000000
1370.230170,-9474.636058,0.000000,153.219100
1370.230496,-9400.615463,148.041188,0.000000
1370.230821,-9252.574275,0.000000,0.000000
1370.231147,-9178.553681,0.000000,153.219100
1370.231472,-9400.615463,74.020594,0.000000
1370.231798,-9400.615463,222.061783,0.000000
1370.232123,-9400.615463,222.061783,0.000000
1370.232449,-9474.636058,148.041188,-229.828649
1370.232774,-9474.636058,296.082377,-153.219100
1370.233100,-9400.615463,74.020594,0.000000
1370.233425,-9326.594869,74.020594,153.219100
1370.233751,-9252.574275,444.123565,-383.047749
1370.234076,-9474.636058,222.061783,-306.438199
1370.234402,-9474.636058,370.102971,76.609550
1370.234727,-9474.636058,74.020594,229.828649
1370.235053,-9030.512492,148.041188,-229.828649
1370.235378,-9252.574275,148.041188,0.000000
1370.235704,-9548.656652,148.041188,0.000000
1370.236029,-9548.656652,222.061783,0.000000
1370.236355,-9474.636058,74.020594,0.000000
1370.236680,-9326.594869,0.000000,0.000000
1370.237006,-9474.636058,148.041188,0.000000
1370.237331,-9326.594869,0.000000,229.828649
1370.237657,-9326.594869,148.041188,0.000000
1370.237982,-9178.553681,0.000000,0.000000
1370.238308,-9252.574275,0.000000,0.000000
1370.238633,-9400.615463,222.061783,153.219100
1370.238959,-9474.636058,222.061783,229.828649
1370.239284,-9178.553681,74.020594,306.438199
1370.239610,-9548.656652,0.000000,0.000000
1370.239935,-9474.636058,74.020594,0.000000
1370.240261,-9178.553681,222.061783,76.609550
1370.240587,-9252.574275,74.020594,229.828649
1370.240912,-9474.636058,0.000000,0.000000
1370.241238,-9252.574275,148.041188,-153.219100
1370.241563,-9474.636058,74.020594,0.000000
1370.241889,-9548.656652,222.061783,-153.219100
1370.242214,-9326.594869,592.164754,-766.095498
1370.242540,-9474.636058,0.000000,229.828649
1370.242865,-9548.656652,222.061783,229.828649
1370.243191,-9178.553681,0.000000,229.828649
1370.243516,-9252.574275,0.000000,306.438199
1370.243842,-9400.615463,148.041188,76.609550
1370.244167,-9326.594869,296.082377,0.000000
1370.244493,-9400.615463,222.061783,-229.828649
1370.244818,-9474.636058,0.000000,76.609550
1370.245144,-9326.594869,0.000000,0.000000
1370.245469,-9400.615463,222.061783,0.000000
1370.245795,-9252.574275,0.000000,153.219100
1370.246120,-9622.677246,296.082377,153.219100
1370.246446,-9326.594869,148.041188,76.609550
1370.246771,-9474.636058,74.020594,0.000000
1370.247097,-9326.594869,0.000000,153.219100
1370.247422,-9252.574275,148.041188,0.000000
1370.247748,-9252.574275,0.000000,536.266849
1370.248073,-9252.574275,222.061783,76.609550
1370.248399,-9252.574275,74.020594,0.000000
1370.248724,-9400.615463,148.041188,0.000000
1370.249050,-9474.636058,296.082377,0.000000
1370.249375,-9474.636058,370.102971,-76.609550
1370.249701,-9548.656652,222.061783,229.828649
1370.250026,-9400.615463,0.000000,229.828649
1370.250352,-9696.697840,148.041188,306.438199
1370.250677,-9030.512492,-222.061783,306.438199
1370.251003,-9400.615463,0.000000,0.000000
1370.251328,-9474.636058,0.000000,0.000000
1370.251654,-9178.553681,296.082377,0.000000
1370.251979,-9326.594869,0.000000,0.000000
1370.252305,-9178.553681,296.082377,76.609550
1370.252630,-9474.636058,0.000000,0.000000
1370.252956,-9474.636058,0.000000,76.609550
1370.253281,-9400.615463,148.041188,0.000000
1370.253607,-9178.553681,518.144159,-153.219100
1370.253932,-9400.615463,0.000000,153.219100
1370.254258,-9474.636058,0.000000,306.438199
1370.254583,-9548.656652,148.041188,0.000000
1370.254909,-9474.636058,222.061783,0.000000
1370.255235,-9400.615463,370.102971,0.000000
1370.255560,-9252.574275,148.041188,0.000000
1370.255886,-9474.636058,0.000000,153.219100
1370.256211,-9474.636058,222.061783,-383.047749
1370.256537,-9548.656652,222.061783,153.219100
1370.256862,-9548.656652,148.041188,76.609550
1370.257188,-9326.594869,0.000000,0.000000
1370.257513,-9400.615463,74.020594,306.438199
1370.257839,-9326.594869,74.020594,0.000000
1370.258164,-9474.636058,222.061783,229.828649
1370.258490,-9474.636058,148.041188,0.000000
1370.258815,-9400.615463,0.000000,153.219100
1370.259141,-9252.574275,370.102971,0.000000
1370.259466,-9326.594869,222.061783,383.047749
1370.259792,-9178.553681,74.020594,229.828649
1370.260117,-9326.594869,0.000000,0.000000
1370.260443,-9326.594869,74.020594,0.000000
1370.260768,-9400.615463,222.061783,-229.828649
1370.261094,-9548.656652,222.061783,76.609550
1370.261419,-9474.636058,296.082377,0.000000
1370.261745,-9548.656652,370.102971,0.000000
1370.262070,-9474.636058,518.144159,76.609550
1370.262396,-9474.636058,74.020594,229.828649
1370.262721,-9474.636058,370.102971,0.000000
1370.263047,-9252.574275,0.000000,383.047749
1370.263372,-9400.615463,296.082377,0.000000
1370.263698,-9030.512492,0.000000,0.000000
1370.264023,-9474.636058,148.041188,0.000000
1370.264349,-9326.594869,74.020594,-229.828649
1370.264674,-9474.636058,222.061783,-153.219100
1370.265000,-9030.512492,444.123565,229.828649
1370.265325,-9474.636058,148.041188,-153.219100
1370.265651,-9178.553681,222.061783,0.000000
1370.265976,-9474.636058,74.020594,76.609550
1370.266302,-9326.594869,148.041188,0.000000
1370.266627,-9326.594869,0.000000,0.000000
1370.266953,-9622.677246,0.000000,153.219100
1370.267278,-9400.615463,74.020594,229.828649
1370.267604,-9252.574275,296.082377,153.219100
1370.267930,-9326.594869,444.123565,0.000000
1370.268255,-9400.615463,0.000000,153.219100
1370.268581,-9474.636058,296.082377,-306.438199
1370.268906,-9400.615463,74.020594,0.000000
1370.269232,-9030.512492,222.061783,76.609550
1370.269557,-9622.677246,0.000000,153.219100
1370.269883,-9474.636058,296.082377,153.219100
1370.270208,-9326.594869,0.000000,459.657299
1370.270534,-9252.574275,592.164754,76.609550
1370.270859,-9474.636058,148.041188,229.828649
1370.271185,-9326.594869,0.000000,0.000000
1370.271510,-9474.636058,222.061783,-76.609550
1370.271836,-9326.594869,74.020594,76.609550
1370.272161,-9622.677246,666.185348,0.000000
1370.272487,-9474.636058,0.000000,459.657299
1370.272812,-9326.594869,222.061783,0.000000
1370.273138,-9474.636058,0.000000,0.000000
1370.273463,-9326.594869,74.020594,229.828649
1370.273789,-9474.636058,0.000000,76.609550
1370.274114,-9474.636058,296.082377,0.000000
1370.274440,-9252.574275,0.000000,0.000000
1370.274765,-9400.615463,222.061783,0.000000
1370.275091,-9252.574275,222.061783,0.000000
1370.275416,-9474.636058,0.000000,153.219100
1370.275742,-9474.636058,296.082377,0.000000
1370.276067,-9400.615463,0.000000,459.657299
1370.276393,-9252.574275,370.102971,153.219100
1370.276718,-9400.615463,0.000000,306.438199
1370.277044,-9326.594869,222.061783,76.609550
1370.277369,-9474.636058,0.000000,76.609550
1370.277695,-9326.594869,296.082377,-766.095498
1370.278020,-9696.697840,222.061783,-306.438199
1370.278346,-9252.574275,74.020594,0.000000
1370.278671,-9326.594869,222.061783,0.000000
1370.278997,-9474.636058,0.000000,306.438199
1370.279322,-9622.677246,74.020594,0.000000
1370.279648,-9178.553681,0.000000,0.000000
1370.279974,-9326.594869,0.000000,76.609550
1370.280299,-9178.553681,148.041188,153.219100
1370.280625,-8808.450710,296.082377,-76.609550
1370.280950,-9474.636058,222.061783,153.219100
1370.281276,-9474.636058,74.020594,306.438199
1370.281601,-9400.615463,148.041188,76.609550
1370.281927,-9548.656652,296.082377,383.047749
1370.282252,-9548.656652,74.020594,76.609550
1370.282578,-9474.636058,296.082377,76.609550
1370.282903,-9548.656652,222.061783,0.000000
1370.283229,-9548.656652,222.061783,76.609550
1370.283554,-9622.677246,74.020594,306.438199
1370.283880,-9474.636058,74.020594,306.438199
1370.284205,-9548.656652,148.041188,383.047749
1370.284531,-9548.656652,222.061783,0.000000
1370.284856,-9030.512492,148.041188,306.438199
1370.285182,-9474.636058,0.000000,229.828649
1370.285507,-9474.636058,148.041188,0.000000
1370.285833,-9474.636058,0.000000,306.438199
1370.286158,-9474.636058,518.144159,76.609550
1370.286484,-9252.574275,148.041188,0.000000
1370.286809,-9474.636058,0.000000,229.828649
1370.287135,-9400.615463,0.000000,229.828649
1370.287460,-9548.656652,296.082377,0.000000
1370.287786,-9178.553681,148.041188,229.828649
1370.288111,-9474.636058,222.061783,306.438199
1370.288437,-9400.615463,148.041188,0.000000
1370.288762,-9326.594869,0.000000,-229.828649
1370.289088,-9326.594869,222.061783,306.438199
1370.289413,-9400.615463,0.000000,153.219100
1370.289739,-9400.615463,74.020594,0.000000
1370.290064,-9474.636058,148.041188,0.000000
1370.290390,-9474.636058,0.000000,229.828649
1370.290715,-9400.615463,74.020594,76.609550
1370.291041,-9474.636058,148.041188,0.000000
1370.291366,-9474.636058,0.000000,0.000000
1370.291692,-9474.636058,222.061783,76.609550
1370.292018,-9474.636058,370.102971,229.828649
1370.292343,-9474.636058,0.000000,76.609550
1370.292669,-9696.697840,74.020594,0.000000
1370.292994,-9474.636058,0.000000,76.609550
1370.293320,-9326.594869,222.061783,153.219100
1370.293645,-9474.636058,296.082377,0.000000
1370.293971,-9474.636058,74.020594,0.000000
1370.294296,-9252.574275,74.020594,0.000000
1370.294622,-9474.636058,296.082377,76.609550
1370.294947,-9474.636058,296.082377,76.609550
1370.295273,-9622.677246,74.020594,153.219100
1370.295598,-9474.636058,148.041188,153.219100
1370.295924,-9770.718434,222.061783,0.000000
1370.296249,-9326.594869,222.061783,-306.438199
1370.296575,-9474.636058,148.041188,76.609550
1370.296900,-9326.594869,0.000000,0.000000
1370.297226,-9252.574275,74.020594,229.828649
1370.297551,-9252.574275,370.102971,76.609550
1370.297877,-9474.636058,296.082377,0.000000
1370.298202,-9548.656652,222.061783,0.000000
1370.298528,-9400.615463,296.082377,0.000000
1370.298853,-9474.636058,0.000000,153.219100
1370.299179,-9400.615463,0.000000,0.000000
1370.299504,-9474.636058,0.000000,76.609550
1370.299830,-9326.594869,0.000000,76.609550
1370.300155,-9400.615463,0.000000,306.438199
1370.300481,-9696.697840,518.144159,-306.438199
1370.300806,-9474.636058,148.041188,-76.609550
1370.301132,-9474.636058,0.000000,0.000000
1370.301457,-9252.574275,74.020594,229.828649
1370.301783,-9326.594869,74.020594,-383.047749
1370.302108,-9178.553681,0.000000,0.000000
1370.302434,-9622.677246,296.082377,0.000000
1370.302759,-9400.615463,0.000000,229.828649
1370.303085,-9252.574275,0.000000,229.828649
1370.303410,-9178.553681,148.041188,153.219100
1370.303736,-9474.636058,74.020594,76.609550
1370.304062,-9326.594869,74.020594,153.219100
1370.304387,-9696.697840,0.000000,0.000000
1370.304713,-9030.512492,-222.061783,-536.266849
1370.305038,-9474.636058,296.082377,0.000000
1370.305364,-9326.594869,148.041188,153.219100
1370.305689,-9474.636058,0.000000,153.219100
1370.306015,-9252.574275,74.020594,383.047749
1370.306340,-9400.615463,0.000000,76.609550
1370.306666,-9400.615463,0.000000,383.047749
1370.306991,-9326.594869,148.041188,0.000000
1370.307317,-9548.656652,296.082377,76.609550
1370.307642,-8956.491898,222.061783,459.657299
1370.307968,-9400.615463,74.020594,76.609550
1370.308293,-9178.553681,148.041188,0.000000
1370.308619,-9474.636058,0.000000,0.000000
1370.308944,-9030.512492,296.082377,229.828649
1370.309270,-9326.594869,148.041188,-153.219100
1370.309595,-9326.594869,296.082377,306.438199
1370.309921,-9400.615463,148.041188,0.000000
1370.310246,-9474.636058,0.000000,229.828649
1370.310572,-9326.594869,74.020594,0.000000
1370.310897,-9474.636058,0.000000,0.000000
1370.311223,-9474.636058,148.041188,76.609550
1370.311548,-9400.615463,74.020594,229.828649
1370.311874,-8808.450710,296.082377,229.828649
1370.312199,-9400.615463,0.000000,306.438199
1370.312525,-9622.677246,74.020594,0.000000
1370.312850,-9400.615463,0.000000,76.609550
1370.313176,-9474.636058,518.144159,0.000000
1370.313501,-9400.615463,0.000000,0.000000
1370.313827,-9252.574275,74.020594,0.000000
1370.314152,-9326.594869,0.000000,153.219100
1370.314478,-9252.574275,296.082377,0.000000
1370.314803,-9104.533087,74.020594,229.828649
1370.315129,-9326.594869,0.000000,76.609550
1370.315454,-9474.636058,0.000000,153.219100
1370.315780,-9622.677246,444.123565,76.609550
1370.316106,-9252.574275,296.082377,383.047749
1370.316431,-9622.677246,74.020594,0.000000
1370.316757,-9400.615463,222.061783,76.609550
1370.317082,-9400.615463,148.041188,0.000000
1370.317408,-9400.615463,592.164754,0.000000
1370.317733,-9622.677246,296.082377,0.000000
1370.318059,-9326.594869,0.000000,306.438199
1370.318384,-9326.594869,74.020594,-306.438199
1370.318710,-9252.574275,0.000000,153.219100
1370.319035,-9178.553681,444.123565,76.609550
1370.319361,-9474.636058,296.082377,153.219100
1370.319686,-9326.594869,0.000000,76.609550
1370.320012,-9474.636058,74.020594,0.000000
1370.320337,-9252.574275,0.000000,76.609550
1370.320663,-9474.636058,222.061783,0.000000
1370.320988,-9326.594869,0.000000,306.438199
1370.321314,-9326.594869,222.061783,153.219100
1370.321639,-9474.636058,0.000000,0.000000
1370.321965,-9474.636058,148.041188,0.000000
1370.322290,-9178.553681,0.000000,229.828649
1370.322616,-9474.636058,222.061783,-153.219100
1370.322941,-9474.636058,222.061783,0.000000
1370.323267,-9030.512492,370.102971,0.000000
1370.323592,-9474.636058,0.000000,76.609550
1370.323918,-9400.615463,74.020594,0.000000
1370.324243,-9622.677246,74.020594,229.828649
1370.324569,-9326.594869,370.102971,153.219100
1370.324894,-9622.677246,0.000000,76.609550
1370.325220,-9474.636058,0.000000,0.000000
1370.325545,-9326.594869,0.000000,76.609550
1370.325871,-9622.677246,0.000000,229.828649
1370.326196,-9474.636058,296.082377,76.609550
1370.326522,-9252.574275,0.000000,306.438199
1370.326847,-9548.656652,148.041188,76.609550
1370.327173,-9178.553681,222.061783,0.000000
1370.327498,-9400.615463,370.102971,383.047749
1370.327824,-9326.594869,0.000000,306.438199
1370.328150,-9400.615463,296.082377,0.000000
1370.328475,-9252.574275,0.000000,76.609550
1370.328801,-9252.574275,444.123565,0.000000
1370.329126,-9326.594869,222.061783,0.000000
1370.329452,-9622.677246,222.061783,0.000000
1370.329777,-9252.574275,296.082377,153.219100
1370.330103,-9400.615463,0.000000,229.828649
1370.330428,-9030.512492,0.000000,0.000000
1370.330754,-9252.574275,148.041188,229.828649
1370.331079,-9474.636058,0.000000,76.609550
1370.331405,-9326.594869,0.000000,229.828649
1370.331730,-9400.615463,222.061783,612.876398
1370.332056,-9474.636058,148.041188,306.438199
1370.332381,-9400.615463,444.123565,0.000000
1370.332707,-9400.615463,74.020594,0.000000
1370.333032,-9178.553681,0.000000,153.219100
1370.333358,-9474.636058,222.061783,76.609550
1370.333683,-9400.615463,0.000000,76.609550
1370.334009,-9400.615463,0.000000,153.219100
1370.334334,-9474.636058,0.000000,229.828649
1370.334660,-9400.615463,296.082377,306.438199
1370.334985,-9474.636058,0.000000,76.609550
1370.335311,-9252.574275,74.020594,76.609550
1370.335636,-9474.636058,148.041188,0.000000
1370.335962,-9252.574275,444.123565,0.000000
1370.336287,-9400.615463,74.020594,-153.219100
1370.336613,-9400.615463,222.061783,76.609550
1370.336938,-9400.615463,0.000000,153.219100
1370.337264,-9326.594869,0.000000,76.609550
1370.337589,-9400.615463,0.000000,229.828649
1370.337915,-9400.615463,0.000000,0.000000
1370.338240,-9326.594869,0.000000,0.000000
1370.338566,-9474.636058,74.020594,306.438199
1370.338891,-9178.553681,0.000000,229.828649
1370.339217,-9252.574275,0.000000,0.000000
1370.339542,-9696.697840,74.020594,0.000000
1370.339868,-9474.636058,148.041188,0.000000
1370.340194,-9474.636058,370.102971,0.000000
1370.340519,-9474.636058,0.000000,229.828649
1370.340845,-9474.636058,222.061783,0.000000
1370.341170,-9400.615463,0.000000,229.828649
1370.341496,-9400.615463,444.123565,0.000000
1370.341821,-9400.615463,74.020594,76.609550
1370.342147,-9474.636058,74.020594,0.000000
1370.342472,-9400.615463,148.041188,0.000000
1370.342798,-9400.615463,74.020594,76.609550
1370.343123,-9474.636058,222.061783,306.438199
1370.343449,-9252.574275,0.000000,229.828649
1370.343774,-9474.636058,74.020594,-153.219100
1370.344100,-9104.533087,0.000000,0.000000
1370.344425,-9548.656652,666.185348,0.000000
1370.344751,-9474.636058,0.000000,0.000000
1370.345076,-9474.636058,74.020594,0.000000
1370.345402,-9474.636058,0.000000,0.000000
1370.345727,-9474.636058,0.000000,229.828649
1370.346053,-9474.636058,0.000000,76.609550
1370.346378,-9474.636058,0.000000,306.438199
1370.346704,-9548.656652,222.061783,0.000000
1370.347029,-9474.636058,0.000000,76.609550
1370.347355,-9326.594869,296.082377,229.828649
1370.347680,-9474.636058,0.000000,0.000000
1370.348006,-9326.594869,296.082377,76.609550
1370.348331,-9252.574275,148.041188,153.219100
1370.348657,-9474.636058,444.123565,0.000000
1370.348982,-9474.636058,0.000000,153.219100
1370.349308,-9474.636058,0.000000,-153.219100
1370.349633,-9400.615463,-296.082377,459.657299
1370.349959,-9474.636058,296.082377,0.000000
1370.350284,-9178.553681,74.020594,76.609550
1370.350610,-9400.615463,444.123565,0.000000
1370.350935,-9400.615463,74.020594,153.219100
1370.351261,-9474.636058,-296.082377,306.438199
1370.351586,-8956.491898,518.144159,0.000000
1370.351912,-9400.615463,0.000000,229.828649
1370.352238,-9474.636058,0.000000,306.438199
1370.352563,-9252.574275,222.061783,0.000000
1370.352889,-9400.615463,148.041188,76.609550
1370.353214,-9178.553681,0.000000,229.828649
1370.353540,-9548.656652,370.102971,0.000000
1370.353865,-9548.656652,222.061783,-229.828649
1370.354191,-9252.574275,0.000000,306.438199
1370.354516,-9326.594869,222.061783,153.219100
1370.354842,-9400.615463,296.082377,0.000000
1370.355167,-9474.636058,0.000000,229.828649
1370.355493,-9474.636058,370.102971,-229.828649
1370.355818,-8882.471304,370.102971,383.047749
1370.356144,-9548.656652,370.102971,0.000000
1370.356469,-9400.615463,148.041188,229.828649
1370.356795,-9326.594869,148.041188,0.000000
1370.357120,-9178.553681,222.061783,0.000000
1370.357446,-9400.615463,0.000000,306.438199
1370.357771,-9474.636058,74.020594,76.609550
1370.358097,-9474.636058,518.144159,153.219100
1370.358422,-9400.615463,296.082377,0.000000
1370.358748,-9252.574275,444.123565,76.609550
1370.359073,-9400.615463,0.000000,153.219100
1370.359399,-9326.594869,296.082377,0.000000
1370.359724,-9474.636058,222.061783,229.828649
1370.360050,-9326.594869,0.000000,229.828649
1370.360375,-9400.615463,148.041188,0.000000
1370.360701,-9474.636058,74.020594,0.000000
1370.361026,-9474.636058,296.082377,-76.609550
1370.361352,-9400.615463,74.020594,76.609550
1370.361677,-9474.636058,444.123565,229.828649
1370.362003,-9474.636058,0.000000,383.047749
1370.362328,-9696.697840,370.102971,153.219100
1370.362654,-9474.636058,296.082377,-76.609550
1370.362979,-9178.553681,296.082377,229.828649
1370.363305,-9178.553681,74.020594,0.000000
1370.363630,-9252.574275,148.041188,0.000000
1370.363956,-9252.574275,148.041188,0.000000
1370.364281,-9400.615463,370.102971,0.000000
1370.364607,-9252.574275,0.000000,76.609550
1370.364932,-9474.636058,-148.041188,0.000000
1370.365258,-9400.615463,74.020594,306.438199
1370.365583,-9400.615463,0.000000,229.828649
1370.365909,-9400.615463,148.041188,383.047749
1370.366234,-9474.636058,222.061783,0.000000
1370.366560,-9252.574275,74.020594,0.000000
1370.366885,-9548.656652,0.000000,153.219100
1370.367211,-9400.615463,592.164754,153.219100
1370.367536,-9622.677246,74.020594,0.000000
1370.367862,-9326.594869,222.061783,0.000000
1370.368187,-9548.656652,296.082377,76.609550
1370.368513,-9252.574275,0.000000,0.000000
1370.368838,-9326.594869,0.000000,383.047749
1370.369164,-9474.636058,0.000000,0.000000
1370.369489,-9252.574275,0.000000,153.219100
1370.369815,-9474.636058,296.082377,0.000000
1370.370140,-9474.636058,222.061783,306.438199
1370.370466,-9400.615463,370.102971,-306.438199
1370.370791,-9548.656652,370.102971,-76.609550
1370.371117,-9474.636058,74.020594,76.609550
1370.371442,-9474.636058,296.082377,229.828649
1370.371768,-9400.615463,370.102971,0.000000
1370.372093,-9326.594869,0.000000,0.000000
1370.372419,-9400.615463,0.000000,306.438199
1370.372744,-9474.636058,296.082377,0.000000
1370.373070,-9326.594869,0.000000,306.438199
1370.373395,-9252.574275,0.000000,76.609550
1370.373721,-9400.615463,148.041188,-153.219100
1370.374046,-9400.615463,148.041188,-306.438199
1370.374372,-9474.636058,0.000000,229.828649
1370.374697,-9326.594869,0.000000,536.266849
1370.375023,-9400.615463,148.041188,0.000000
1370.375348,-9474.636058,296.082377,0.000000
1370.375674,-9474.636058,222.061783,0.000000
1370.375999,-9474.636058,74.020594,229.828649
1370.376325,-9474.636058,0.000000,306.438199
1370.376651,-9474.636058,0.000000,76.609550
1370.376976,-9400.615463,0.000000,76.609550
1370.377302,-9326.594869,0.000000,0.000000
1370.377627,-9400.615463,148.041188,0.000000
1370.377953,-9400.615463,148.041188,0.000000
1370.378278,-9326.594869,444.123565,0.000000
1370.378604,-9474.636058,666.185348,153.219100
1370.378929,-9400.615463,0.000000,76.609550
1370.379255,-9474.636058,74.020594,229.828649
1370.379580,-9326.594869,148.041188,153.219100
1370.379906,-9696.697840,148.041188,306.438199
1370.380231,-9548.656652,0.000000,229.828649
1370.380557,-9400.615463,148.041188,0.000000
1370.380882,-9326.594869,0.000000,306.438199
1370.381208,-9252.574275,74.020594,0.000000
1370.381533,-9252.574275,0.000000,0.000000
1370.381859,-9400.615463,148.041188,229.828649
1370.382184,-9400.615463,296.082377,0.000000
1370.382510,-9104.533087,0.000000,76.609550
1370.382835,-9400.615463,592.164754,-383.047749
1370.383161,-9474.636058,74.020594,229.828649
1370.383486,-9548.656652,222.061783,76.609550
1370.383812,-9400.615463,0.000000,153.219100
1370.384137,-9474.636058,222.061783,153.219100
1370.384463,-9548.656652,-222.061783,153.219100
1370.384788,-9178.553681,0.000000,76.609550
1370.385114,-9400.615463,0.000000,153.219100
1370.385439,-9104.533087,148.041188,76.609550
1370.385765,-9696.697840,0.000000,229.828649
1370.386090,-9474.636058,74.020594,153.219100
1370.386416,-9252.574275,222.061783,-229.828649
1370.386741,-9252.574275,74.020594,-383.047749
1370.387067,-9252.574275,0.000000,383.047749
1370.387392,-9474.636058,0.000000,0.000000
1370.387718,-9252.574275,0.000000,0.000000
1370.388043,-9252.574275,74.020594,229.828649
1370.388369,-9474.636058,74.020594,0.000000
1370.388694,-9474.636058,222.061783,76.609550
1370.389020,-9326.594869,148.041188,0.000000
1370.389345,-9548.656652,0.000000,153.219100
1370.389671,-9474.636058,74.020594,153.219100
1370.389996,-9474.636058,222.061783,76.609550
1370.390322,-9474.636058,74.020594,0.000000
1370.390647,-9252.574275,222.061783,0.000000
1370.390973,-9326.594869,74.020594,229.828649
1370.391298,-9178.553681,-296.082377,536.266849
1370.391624,-9474.636058,74.020594,0.000000
1370.391949,-9548.656652,0.000000,0.000000
1370.392275,-9400.615463,444.123565,0.000000
1370.392600,-9474.636058,74.020594,306.438199
1370.392926,-9474.636058,0.000000,76.609550
1370.393251,-9474.636058,74.020594,459.657299
1370.393577,-9548.656652,74.020594,153.219100
1370.393902,-9474.636058,74.020594,0.000000
1370.394228,-9252.574275,0.000000,689.485948
1370.394553,-9474.636058,74.020594,0.000000
1370.394879,-9104.533087,74.020594,0.000000
1370.395204,-9474.636058,0.000000,153.219100
1370.395530,-9252.574275,74.020594,76.609550
1370.395855,-9474.636058,148.041188,383.047749
1370.396181,-9474.636058,222.061783,0.000000
1370.396506,-9400.615463,0.000000,536.266849
1370.396832,-9548.656652,444.123565,76.609550
1370.397157,-9326.594869,148.041188,459.657299
1370.397483,-9400.615463,222.061783,229.828649
1370.397808,-9622.677246,148.041188,0.000000
1370.398134,-9400.615463,74.020594,229.828649
1370.398459,-9474.636058,296.082377,0.000000
1370.398785,-9474.636058,148.041188,0.000000
1370.399110,-9474.636058,148.041188,229.828649
1370.399436,-9400.615463,296.082377,0.000000
1370.399761,-9474.636058,222.061783,306.438199
1370.400087,-9252.574275,148.041188,153.219100
1370.400412,-9400.615463,0.000000,153.219100
1370.400738,-9622.677246,74.020594,229.828649
1370.401063,-9400.615463,0.000000,76.609550
1370.401389,-9474.636058,222.061783,0.000000
1370.401714,-9400.615463,296.082377,0.000000
1370.402040,-9474.636058,0.000000,0.000000
1370.402365,-9252.574275,74.020594,0.000000
1370.402691,-9326.594869,0.000000,-383.047749
1370.403016,-9474.636058,0.000000,76.609550
1370.403342,-9326.594869,148.041188,0.000000
1370.403667,-9178.553681,0.000000,153.219100
1370.403993,-9400.615463,0.000000,153.219100
1370.404318,-9252.574275,74.020594,76.609550
1370.404644,-9400.615463,0.000000,0.000000
1370.404969,-9400.615463,296.082377,76.609550
1370.405295,-9548.656652,222.061783,0.000000
1370.405620,-9474.636058,222.061783,0.000000
1370.405946,-9400.615463,222.061783,229.828649
1370.406271,-9548.656652,296.082377,229.828649
1370.406597,-9548.656652,222.061783,76.609550
1370.406922,-9104.533087,0.000000,-306.438199
1370.407248,-8956.491898,0.000000,306.438199
1370.407573,-9178.553681,74.020594,153.219100
1370.407899,-9548.656652,0.000000,153.219100
1370.408224,-9252.574275,74.020594,-306.438199
1370.408550,-9252.574275,296.082377,0.000000
1370.408875,-9474.636058,222.061783,0.000000
1370.409201,-9474.636058,0.000000,153.219100
1370.409526,-9474.636058,222.061783,0.000000
1370.409852,-9104.533087,296.082377,153.219100
1370.410177,-9474.636058,0.000000,459.657299
1370.410503,-9326.594869,444.123565,0.000000
1370.410828,-9474.636058,74.020594,76.609550
1370.411154,-9252.574275,296.082377,0.000000
1370.411479,-9696.697840,222.061783,153.219100
1370.411805,-9252.574275,74.020594,0.000000
1370.412130,-9252.574275,0.000000,153.219100
1370.412456,-9474.636058,148.041188,76.609550
1370.412781,-9326.594869,296.082377,306.438199
1370.413107,-9400.615463,296.082377,229.828649
1370.413432,-9548.656652,296.082377,153.219100
1370.413758,-9474.636058,0.000000,306.438199
1370.414083,-9104.533087,0.000000,-153.219100
1370.414409,-9400.615463,444.123565,0.000000
1370.414734,-9400.615463,74.020594,153.219100
1370.415060,-9474.636058,222.061783,0.000000
1370.415385,-9474.636058,74.020594,306.438199
1370.415711,-9548.656652,296.082377,0.000000
1370.416036,-9326.594869,0.000000,76.609550
1370.416362,-9474.636058,0.000000,383.047749
1370.416687,-9326.594869,74.020594,153.219100
1370.417013,-9252.574275,444.123565,0.000000
1370.417338,-9548.656652,148.041188,153.219100
1370.417664,-9474.636058,0.000000,76.609550
1370.417989,-9474.636058,74.020594,0.000000
1370.418315,-9400.615463,370.102971,383.047749
1370.418640,-9474.636058,148.041188,-153.219100
1370.418966,-9474.636058,74.020594,0.000000
1370.419291,-9622.677246,74.020594,0.000000
1370.419617,-9400.615463,0.000000,153.219100
1370.419942,-9326.594869,0.000000,229.828649
1370.420268,-9622.677246,0.000000,0.000000
1370.420593,-9474.636058,0.000000,229.828649
1370.420919,-9474.636058,148.041188,0.000000
1370.421244,-9104.533087,296.082377,-1072.533697
1370.421570,-9548.656652,148.041188,0.000000
1370.421895,-9474.636058,370.102971,0.000000
1370.422221,-9474.636058,74.020594,153.219100
1370.422546,-9548.656652,518.144159,76.609550
1370.422872,-9400.615463,148.041188,153.219100
1370.423198,-9474.636058,0.000000,229.828649
1370.423523,-9400.615463,296.082377,0.000000
1370.423849,-9400.615463,222.061783,306.438199
1370.424174,-9474.636058,0.000000,306.438199
1370.424500,-9548.656652,0.000000,76.609550
1370.424825,-9474.636058,0.000000,306.438199
1370.425151,-9178.553681,0.000000,0.000000
1370.425476,-9252.574275,666.185348,-842.705048
1370.425802,-9178.553681,0.000000,0.000000
1370.426127,-9252.574275,222.061783,0.000000
1370.426453,-9400.615463,0.000000,459.657299
1370.426778,-9548.656652,296.082377,153.219100
1370.427104,-9474.636058,148.041188,383.047749
1370.427429,-9548.656652,148.041188,0.000000
1370.427755,-9474.636058,0.000000,153.219100
1370.428080,-9400.615463,0.000000,306.438199
1370.428406,-9474.636058,74.020594,383.047749
1370.428731,-9474.636058,74.020594,459.657299
1370.429057,-9400.615463,148.041188,0.000000
1370.429382,-9400.615463,74.020594,0.000000
1370.429708,-9474.636058,222.061783,-306.438199
1370.430033,-9400.615463,0.000000,76.609550
1370.430359,-9400.615463,148.041188,0.000000
1370.430684,-9252.574275,0.000000,0.000000
1370.431010,-9326.594869,296.082377,76.609550
1370.431335,-9326.594869,0.000000,153.219100
1370.431661,-9474.636058,0.000000,229.828649
1370.431986,-9474.636058,0.000000,76.609550
1370.432312,-9326.594869,148.041188,0.000000
1370.432637,-9178.553681,148.041188,0.000000
1370.432963,-9400.615463,0.000000,76.609550
1370.433288,-9474.636058,0.000000,76.609550
1370.433614,-9326.594869,0.000000,76.609550
1370.433939,-9252.574275,-296.082377,0.000000
1370.434265,-9400.615463,74.020594,76.609550
1370.434590,-9474.636058,0.000000,0.000000
1370.434916,-9400.615463,222.061783,306.438199
1370.435241,-9178.553681,148.041188,306.438199
1370.435567,-9400.615463,296.082377,0.000000
1370.435892,-9326.594869,0.000000,-229.828649
1370.436218,-9548.656652,222.061783,0.000000
1370.436543,-9326.594869,0.000000,306.438199
1370.436869,-9104.533087,-222.061783,0.000000
1370.437194,-9474.636058,0.000000,153.219100
1370.437520,-9474.636058,148.041188,153.219100
1370.437845,-9474.636058,0.000000,76.609550
1370.438171,-9400.615463,222.061783,76.609550
1370.438496,-9474.636058,74.020594,76.609550
1370.438822,-9474.636058,0.000000,76.609550
1370.439147,-9474.636058,74.020594,76.609550
1370.439473,-9548.656652,0.000000,306.438199
1370.439798,-9178.553681,296.082377,0.000000
1370.440124,-9400.615463,148.041188,306.438199
1370.440449,-9474.636058,222.061783,0.000000
1370.440775,-9326.594869,74.020594,153.219100
1370.441100,-9400.615463,74.020594,306.438199
1370.441426,-9400.615463,0.000000,229.828649
1370.441751,-9178.553681,0.000000,-153.219100
1370.442077,-9326.594869,74.020594,229.828649
1370.442402,-9474.636058,0.000000,0.000000
1370.442728,-9474.636058,74.020594,-76.609550
1370.443053,-9474.636058,74.020594,76.609550
1370.443379,-9400.615463,0.000000,0.000000
1370.443704,-9400.615463,0.000000,0.000000
1370.444030,-9178.553681,0.000000,229.828649
1370.444355,-9474.636058,148.041188,76.609550
1370.444681,-9400.615463,222.061783,-76.609550
1370.445006,-9622.677246,148.041188,0.000000
1370.445332,-9696.697840,370.102971,0.000000
1370.445657,-9474.636058,222.061783,-153.219100
1370.445983,-9400.615463,296.082377,0.000000
1370.446308,-9400.615463,74.020594,76.609550
1370.446634,-9400.615463,148.041188,153.219100
1370.446959,-9474.636058,74.020594,0.000000
1370.447285,-9548.656652,0.000000,229.828649
1370.447610,-9474.636058,222.061783,383.047749
1370.447936,-9474.636058,370.102971,0.000000
1370.448261,-9178.553681,0.000000,229.828649
1370.448587,-9400.615463,0.000000,76.609550
1370.448912,-9400.615463,148.041188,0.000000
1370.449238,-9326.594869,0.000000,0.000000
1370.449563,-9696.697840,370.102971,-229.828649
1370.449889,-9252.574275,296.082377,76.609550
1370.450214,-9474.636058,0.000000,612.876398
1370.450540,-9400.615463,148.041188,76.609550
1370.450865,-9474.636058,0.000000,229.828649
1370.451191,-9178.553681,74.020594,306.438199
1370.451516,-9474.636058,222.061783,76.609550
1370.451842,-9252.574275,0.000000,0.000000
1370.452167,-9622.677246,0.000000,-153.219100
1370.452493,-9400.615463,0.000000,0.000000
1370.452818,-9474.636058,296.082377,229.828649
1370.453144,-9400.615463,74.020594,153.219100
1370.453469,-9326.594869,0.000000,153.219100
1370.453795,-9474.636058,74.020594,459.657299
1370.454120,-9326.594869,222.061783,0.000000
1370.454446,-9400.615463,74.020594,153.219100
1370.454771,-9326.594869,296.082377,0.000000
1370.455097,-9474.636058,74.020594,153.219100
1370.455422,-9178.553681,148.041188,0.000000
1370.455748,-9474.636058,222.061783,0.000000
1370.456073,-9252.574275,0.000000,229.828649
1370.456399,-9622.677246,296.082377,76.609550
1370.456724,-9770.718434,148.041188,229.828649
1370.457050,-9474.636058,296.082377,153.219100
1370.457375,-9548.656652,74.020594,0.000000
1370.457701,-9474.636058,0.000000,-76.609550
1370.458026,-9548.656652,148.041188,76.609550
1370.458352,-9474.636058,222.061783,153.219100
1370.458677,-9326.594869,0.000000,76.609550
1370.459003,-9400.615463,148.041188,0.000000
1370.459328,-9400.615463,0.000000,306.438199
1370.459654,-9326.594869,222.061783,76.609550
1370.459979,-9400.615463,0.000000,76.609550
1370.460305,-9326.594869,222.061783,0.000000
1370.460630,-9548.656652,0.000000,306.438199
1370.460956,-9622.677246,518.144159,306.438199
1370.461281,-9696.697840,222.061783,0.000000
1370.461607,-9474.636058,0.000000,306.438199
1370.461932,-9770.718434,222.061783,153.219100
1370.462258,-9400.615463,0.000000,153.219100
1370.462583,-9252.574275,222.061783,153.219100
1370.462909,-9474.636058,222.061783,0.000000
1370.463234,-9326.594869,148.041188,0.000000
1370.463560,-9474.636058,296.082377,-76.609550
1370.463885,-9030.512492,444.123565,-536.266849
1370.464211,-9326.594869,0.000000,229.828649
1370.464536,-9326.594869,148.041188,76.609550
1370.464862,-9474.636058,296.082377,229.828649
1370.465187,-9104.533087,0.000000,76.609550
1370.465513,-9474.636058,296.082377,0.000000
1370.465839,-9326.594869,222.061783,0.000000
1370.466164,-9474.636058,0.000000,229.828649
1370.466490,-9474.636058,296.082377,0.000000
1370.466815,-9622.677246,74.020594,76.609550
1370.467141,-9770.718434,74.020594,0.000000
1370.467466,-9474.636058,74.020594,306.438199
1370.467792,-9548.656652,148.041188,0.000000
1370.468117,-9252.574275,148.041188,-229.828649
1370.468443,-9474.636058,222.061783,76.609550
1370.468768,-9474.636058,0.000000,0.000000
1370.469094,-9474.636058,74.020594,76.609550
1370.469419,-9400.615463,0.000000,76.609550
1370.469745,-9474.636058,0.000000,153.219100
1370.470070,-9178.553681,0.000000,0.000000
1370.470396,-9696.697840,370.102971,0.000000
1370.470721,-9252.574275,148.041188,0.000000
1370.471047,-9400.615463,518.144159,229.828649
1370.471372,-9474.636058,0.000000,76.609550
1370.471698,-9474.636058,0.000000,0.000000
1370.472023,-9326.594869,148.041188,153.219100
1370.472349,-9326.594869,518.144159,229.828649
1370.472674,-9326.594869,0.000000,0.000000
1370.473000,-9326.594869,370.102971,153.219100
1370.473325,-9326.594869,0.000000,0.000000
1370.473651,-9474.636058,0.000000,0.000000
1370.473976,-9474.636058,0.000000,0.000000
1370.474302,-9400.615463,296.082377,383.047749
1370.474627,-9548.656652,74.020594,76.609550
1370.474953,-9400.615463,370.102971,76.609550
1370.475278,-9252.574275,518.144159,229.828649
1370.475604,-9400.615463,296.082377,0.000000
1370.475929,-9474.636058,222.061783,0.000000
1370.476255,-9326.594869,222.061783,-229.828649
1370.476580,-9252.574275,296.082377,0.000000
1370.476906,-9400.615463,0.000000,0.000000
1370.477231,-9326.594869,148.041188,229.828649
1370.477557,-9400.615463,0.000000,306.438199
1370.477882,-9622.677246,0.000000,0.000000
1370.478208,-9474.636058,222.061783,153.219100
1370.478533,-9252.574275,296.082377,0.000000
1370.478859,-9474.636058,148.041188,306.438199
1370.479184,-9400.615463,296.082377,0.000000
1370.479510,-9252.574275,370.102971,76.609550
1370.479835,-9474.636058,0.000000,0.000000
1370.480161,-9474.636058,148.041188,0.000000
1370.480486,-9548.656652,148.041188,-153.219100
1370.480812,-9474.636058,666.185348,306.438199
1370.481137,-9326.594869,222.061783,153.219100
1370.481463,-9252.574275,74.020594,383.047749
1370.481788,-9400.615463,0.000000,229.828649
1370.482114,-9474.636058,74.020594,383.047749
1370.482439,-9474.636058,74.020594,76.609550
1370.482765,-9474.636058,222.061783,153.219100
1370.483090,-9326.594869,0.000000,76.609550
1370.483416,-9474.636058,296.082377,0.000000
1370.483741,-9252.574275,666.185348,0.000000
1370.484067,-9326.594869,148.041188,0.000000
1370.484392,-9474.636058,74.020594,153.219100
1370.484718,-9474.636058,74.020594,0.000000
1370.485043,-9326.594869,-222.061783,76.609550
1370.485369,-9622.677246,296.082377,0.000000
1370.485694,-9474.636058,0.000000,536.266849
1370.486020,-9252.574275,0.000000,76.609550
1370.486345,-9474.636058,74.020594,76.609550
1370.486671,-9104.533087,0.000000,76.609550
1370.486996,-9474.636058,222.061783,0.000000
1370.487322,-9474.636058,74.020594,153.219100
1370.487647,-9474.636058,0.000000,76.609550
1370.487973,-9622.677246,222.061783,612.876398
1370.488298,-9252.574275,0.000000,612.876398
1370.488624,-9252.574275,148.041188,459.657299
1370.488949,-9400.615463,0.000000,306.438199
1370.489275,-9474.636058,74.020594,0.000000
1370.489600,-9622.677246,296.082377,0.000000
1370.489926,-9474.636058,0.000000,76.609550
1370.490251,-9474.636058,222.061783,0.000000
1370.490577,-9252.574275,296.082377,0.000000
1370.490902,-9622.677246,148.041188,229.828649
1370.491228,-9326.594869,222.061783,0.000000
1370.491553,-9474.636058,222.061783,0.000000
1370.491879,-9252.574275,74.020594,0.000000
1370.492204,-9696.697840,666.185348,229.828649
1370.492530,-9326.594869,148.041188,0.000000
1370.492855,-9474.636058,74.020594,76.609550
1370.493181,-9400.615463,222.061783,0.000000
1370.493506,-9474.636058,0.000000,0.000000
1370.493832,-9696.697840,148.041188,-153.219100
1370.494158,-9474.636058,222.061783,-306.438199
1370.494483,-9178.553681,0.000000,0.000000
1370.494809,-9474.636058,74.020594,76.609550
1370.495134,-9622.677246,444.123565,153.219100
1370.495460,-9326.594869,0.000000,459.657299
1370.495785,-9474.636058,0.000000,76.609550
1370.496111,-9474.636058,296.082377,153.219100
1370.496436,-9548.656652,296.082377,0.000000
1370.496762,-9400.615463,148.041188,-153.219100
1370.497087,-9326.594869,222.061783,0.000000
1370.497413,-9326.594869,-148.041188,153.219100
1370.497738,-9400.615463,222.061783,306.438199
1370.498064,-9104.533087,0.000000,383.047749
1370.498389,-9400.615463,74.020594,-306.438199
1370.498715,-9400.615463,222.061783,0.000000
1370.499040,-9400.615463,0.000000,306.438199
1370.499366,-9548.656652,370.102971,76.609550
1370.499691,-9548.656652,222.061783,306.438199
1370.500017,-9548.656652,148.041188,76.609550
1370.500342,-9474.636058,222.061783,0.000000
1370.500668,-9400.615463,74.020594,153.219100
1370.500993,-9474.636058,148.041188,0.000000
1370.501319,-9474.636058,0.000000,76.609550
1370.501644,-9548.656652,296.082377,153.219100
1370.501970,-9474.636058,148.041188,76.609550
1370.502295,-9474.636058,0.000000,689.485948
1370.502621,-9474.636058,148.041188,76.609550
1370.502946,-9252.574275,0.000000,153.219100
1370.503272,-9474.636058,74.020594,0.000000
1370.503597,-9770.718434,444.123565,-536.266849
1370.503923,-9400.615463,74.020594,76.609550
1370.504248,-9252.574275,222.061783,0.000000
1370.504574,-9474.636058,148.041188,0.000000
1370.504899,-9400.615463,222.061783,0.000000
1370.505225,-9252.574275,0.000000,0.000000
1370.505550,-9474.636058,74.020594,229.828649
1370.505876,-9474.636058,0.000000,153.219100
1370.506201,-9474.636058,74.020594,153.219100
1370.506527,-9548.656652,0.000000,766.095498
1370.506852,-9400.615463,222.061783,76.609550
1370.507178,-9326.594869,148.041188,-383.047749
1370.507503,-9326.594869,74.020594,76.609550
1370.507829,-9548.656652,74.020594,0.000000
1370.508154,-9474.636058,148.041188,-76.609550
1370.508480,-9548.656652,222.061783,153.219100
1370.508805,-9400.615463,296.082377,153.219100
1370.509131,-9252.574275,0.000000,0.000000
1370.509456,-9178.553681,-74.020594,76.609550
1370.509782,-9474.636058,148.041188,76.609550
1370.510107,-9548.656652,0.000000,153.219100
1370.510433,-9622.677246,296.082377,0.000000
1370.510758,-9622.677246,296.082377,229.828649
1370.511084,-9326.594869,296.082377,0.000000
1370.511409,-9474.636058,148.041188,76.609550
1370.511735,-9548.656652,148.041188,0.000000
1370.512060,-9548.656652,148.041188,229.828649
1370.512386,-9326.594869,0.000000,383.047749
1370.512711,-9326.594869,74.020594,153.219100
1370.513037,-9474.636058,0.000000,459.657299
1370.513362,-9474.636058,148.041188,0.000000
1370.513688,-9622.677246,74.020594,0.000000
1370.514013,-9622.677246,370.102971,0.000000
1370.514339,-9474.636058,0.000000,76.609550
1370.514664,-9178.553681,222.061783,-229.828649
1370.514990,-9030.512492,296.082377,459.657299
1370.515315,-9326.594869,222.061783,153.219100
1370.515641,-9622.677246,0.000000,229.828649
1370.515966,-9548.656652,148.041188,0.000000
1370.516292,-9548.656652,148.041188,536.266849
1370.516617,-9178.553681,74.020594,153.219100
1370.516943,-9474.636058,148.041188,0.000000
1370.517268,-9474.636058,0.000000,459.657299
1370.517594,-9326.594869,148.041188,229.828649
1370.517919,-9252.574275,370.102971,229.828649
1370.518245,-9474.636058,222.061783,0.000000
1370.518570,-9474.636058,74.020594,229.828649
1370.518896,-9252.574275,222.061783,0.000000
1370.519221,-9474.636058,222.061783,459.657299
1370.519547,-9178.553681,0.000000,229.828649
1370.519872,-9400.615463,148.041188,153.219100
1370.520198,-9474.636058,148.041188,0.000000
1370.520523,-9474.636058,0.000000,76.609550
1370.520849,-9474.636058,0.000000,-306.438199
1370.521174,-9474.636058,370.102971,-229.828649
1370.521500,-9474.636058,0.000000,0.000000
1370.521825,-9474.636058,296.082377,76.609550
1370.522151,-9696.697840,0.000000,842.705048
1370.522477,-9622.677246,74.020594,0.000000
1370.522802,-9474.636058,74.020594,76.609550
1370.523128,-9474.636058,222.061783,0.000000
1370.523453,-9326.594869,0.000000,459.657299
1370.523779,-9474.636058,148.041188,76.609550
1370.524104,-9474.636058,148.041188,153.219100
1370.524430,-9548.656652,148.041188,0.000000
1370.524755,-9474.636058,0.000000,383.047749
1370.525081,-9400.615463,0.000000,0.000000
1370.525406,-9326.594869,0.000000,306.438199
1370.525732,-9474.636058,296.082377,0.000000
1370.526057,-9548.656652,444.123565,76.609550
1370.526383,-9474.636058,0.000000,229.828649
1370.526708,-9474.636058,296.082377,0.000000
1370.527034,-9474.636058,0.000000,229.828649
1370.527359,-9474.636058,370.102971,-306.438199
1370.527685,-9474.636058,0.000000,383.047749
1370.528010,-9326.594869,148.041188,0.000000
1370.528336,-9474.636058,222.061783,0.000000
1370.528661,-9104.533087,296.082377,0.000000
1370.528987,-9252.574275,74.020594,153.219100
1370.529312,-9252.574275,0.000000,0.000000
1370.529638,-9474.636058,222.061783,229.828649
1370.529963,-9474.636058,148.041188,76.609550
1370.530289,-9326.594869,0.000000,153.219100
1370.530614,-9326.594869,592.164754,0.000000
1370.530940,-9474.636058,296.082377,0.000000
1370.531265,-9326.594869,222.061783,76.609550
1370.531591,-9548.656652,296.082377,0.000000
1370.531916,-9326.594869,222.061783,0.000000
1370.532242,-9326.594869,0.000000,76.609550
1370.532567,-9326.594869,0.000000,153.219100
1370.532893,-9474.636058,0.000000,153.219100
1370.533218,-9474.636058,148.041188,383.047749
1370.533544,-9400.615463,74.020594,0.000000
1370.533869,-9400.615463,0.000000,0.000000
1370.534195,-9622.677246,74.020594,0.000000
1370.534520,-9400.615463,0.000000,76.609550
1370.534846,-9622.677246,74.020594,-153.219100
1370.535171,-9104.533087,0.000000,229.828649
1370.535497,-9252.574275,296.082377,0.000000
1370.535822,-9326.594869,222.061783,76.609550
1370.536148,-9474.636058,444.123565,0.000000
1370.536473,-9474.636058,74.020594,0.000000
1370.536799,-9400.615463,0.000000,0.000000
1370.537124,-9474.636058,74.020594,229.828649
1370.537450,-9178.553681,74.020594,229.828649
1370.537775,-9474.636058,148.041188,306.438199
1370.538101,-9474.636058,0.000000,306.438199
1370.538426,-9252.574275,296.082377,0.000000
1370.538752,-9474.636058,148.041188,153.219100
1370.539077,-9770.718434,222.061783,0.000000
1370.539403,-9178.553681,0.000000,306.438199
1370.539728,-9474.636058,0.000000,459.657299
1370.540054,-9400.615463,0.000000,536.266849
1370.540379,-9400.615463,222.061783,76.609550
1370.540705,-9474.636058,74.020594,-383.047749
1370.541030,-9326.594869,74.020594,0.000000
1370.541356,-9474.636058,74.020594,0.000000
1370.541681,-9178.553681,148.041188,76.609550
1370.542007,-9622.677246,148.041188,459.657299
1370.542332,-9252.574275,0.000000,229.828649
1370.542658,-9326.594869,0.000000,0.000000
1370.542983,-9474.636058,148.041188,153.219100
1370.543309,-9474.636058,0.000000,0.000000
1370.543634,-9548.656652,0.000000,306.438199
1370.543960,-9474.636058,0.000000,76.609550
1370.544285,-9474.636058,222.061783,76.609550
1370.544611,-9400.615463,74.020594,0.000000
1370.544936,-9400.615463,222.061783,-306.438199
1370.545262,-9326.594869,0.000000,-229.828649
1370.545587,-9474.636058,0.000000,306.438199
1370.545913,-9400.615463,0.000000,153.219100
1370.546238,-9474.636058,0.000000,689.485948
1370.546564,-9326.594869,0.000000,153.219100
1370.546889,-9474.636058,0.000000,0.000000
1370.547215,-9326.594869,0.000000,0.000000
1370.547540,-9474.636058,74.020594,-229.828649
1370.547866,-9400.615463,148.041188,76.609550
1370.548191,-9326.594869,222.061783,76.609550
1370.548517,-9252.574275,0.000000,306.438199
1370.548842,-9252.574275,74.020594,76.609550
1370.549168,-9474.636058,148.041188,76.609550
1370.549493,-9474.636058,0.000000,76.609550
1370.549819,-9474.636058,444.123565,0.000000
1370.550144,-9548.656652,148.041188,76.609550
1370.550470,-9474.636058,-148.041188,612.876398
1370.550796,-9326.594869,0.000000,383.047749
1370.551121,-9474.636058,444.123565,0.000000
1370.551447,-9326.594869,0.000000,306.438199
1370.551772,-9474.636058,296.082377,0.000000
1370.552098,-9474.636058,222.061783,0.000000
1370.552423,-9178.553681,296.082377,0.000000
1370.552749,-9474.636058,74.020594,306.438199
1370.553074,-9474.636058,74.020594,76.609550
1370.553400,-9030.512492,222.061783,0.000000
1370.553725,-9474.636058,0.000000,76.609550
1370.554051,-9474.636058,148.041188,0.000000
1370.554376,-9696.697840,296.082377,0.000000
1370.554702,-9474.636058,0.000000,995.924147
1370.555027,-9400.615463,296.082377,0.000000
1370.555353,-9326.594869,0.000000,0.000000
1370.555678,-9400.615463,296.082377,0.000000
1370.556004,-9326.594869,296.082377,-306.438199
1370.556329,-9474.636058,74.020594,-306.438199
1370.556655,-9252.574275,148.041188,-306.438199
1370.556980,-9474.636058,74.020594,76.609550
1370.557306,-9474.636058,148.041188,536.266849
1370.557631,-9548.656652,370.102971,383.047749
1370.557957,-9474.636058,370.102971,0.000000
1370.558282,-9252.574275,296.082377,0.000000
1370.558608,-9474.636058,148.041188,306.438199
1370.558933,-9548.656652,0.000000,0.000000
1370.559259,-9252.574275,0.000000,459.657299
1370.559584,-9474.636058,74.020594,229.828649
1370.559910,-9474.636058,74.020594,229.828649
1370.560235,-9252.574275,148.041188,76.609550
1370.560561,-9474.636058,0.000000,306.438199
1370.560886,-9474.636058,148.041188,0.000000
1370.561212,-9474.636058,0.000000,76.609550
1370.561537,-9622.677246,296.082377,0.000000
1370.561863,-9252.574275,148.041188,612.876398
1370.562188,-9178.553681,148.041188,229.828649
1370.562514,-9400.615463,222.061783,76.609550
1370.562839,-9400.615463,74.020594,0.000000
1370.563165,-9474.636058,148.041188,-153.219100
1370.563490,-9622.677246,148.041188,0.000000
1370.563816,-9400.615463,148.041188,153.219100
1370.564141,-9400.615463,296.082377,76.609550
1370.564467,-9474.636058,222.061783,0.000000
1370.564792,-9474.636058,0.000000,229.828649
1370.565118,-9548.656652,148.041188,0.000000
1370.565443,-9474.636058,74.020594,153.219100
1370.565769,-9474.636058,74.020594,0.000000
1370.566094,-9252.574275,0.000000,689.485948
1370.566420,-9326.594869,0.000000,153.219100
1370.566745,-9400.615463,74.020594,0.000000
1370.567071,-9252.574275,0.000000,76.609550
1370.567396,-9474.636058,0.000000,919.314598
1370.567722,-9474.636058,222.061783,0.000000
1370.568047,-9474.636058,148.041188,153.219100
1370.568373,-9474.636058,222.061783,0.000000
1370.568698,-9474.636058,296.082377,153.219100
1370.569024,-9622.677246,74.020594,76.609550
1370.569349,-9474.636058,148.041188,0.000000
1370.569675,-9326.594869,296.082377,0.000000
1370.570000,-9400.615463,222.061783,76.609550
1370.570326,-9474.636058,74.020594,383.047749
1370.570652,-9400.615463,296.082377,153.219100
1370.570977,-9252.574275,0.000000,229.828649
1370.571303,-9474.636058,0.000000,0.000000
1370.571628,-9178.553681,74.020594,0.000000
1370.571954,-9326.594869,0.000000,0.000000
1370.572279,-9178.553681,222.061783,0.000000
1370.572605,-9326.594869,148.041188,-229.828649
1370.572930,-9548.656652,0.000000,229.828649
1370.573256,-9252.574275,370.102971,459.657299
1370.573581,-9474.636058,148.041188,0.000000
1370.573907,-9548.656652,222.061783,0.000000
1370.574232,-9474.636058,296.082377,153.219100
1370.574558,-9400.615463,296.082377,306.438199
1370.574883,-9252.574275,148.041188,-383.047749
1370.575209,-9548.656652,148.041188,229.828649
1370.575534,-9326.594869,148.041188,0.000000
1370.575860,-9252.574275,222.061783,0.000000
1370.576185,-9474.636058,444.123565,0.000000
1370.576511,-9326.594869,74.020594,0.000000
1370.576836,-9474.636058,74.020594,0.000000
1370.577162,-9400.615463,222.061783,153.219100
1370.577487,-9178.553681,0.000000,306.438199
1370.577813,-9474.636058,148.041188,0.000000
1370.578138,-9474.636058,74.020594,306.438199
1370.578464,-9474.636058,0.000000,76.609550
1370.578789,-9770.718434,74.020594,536.266849
1370.579115,-9474.636058,148.041188,0.000000
1370.579440,-9400.615463,148.041188,229.828649
1370.579766,-9178.553681,0.000000,306.438199
1370.580091,-9252.574275,74.020594,0.000000
1370.580417,-9252.574275,370.102971,306.438199
1370.580742,-9474.636058,296.082377,0.000000
1370.581068,-9474.636058,0.000000,0.000000
1370.581393,-9252.574275,222.061783,0.000000
1370.581719,-9696.697840,148.041188,383.047749
1370.582044,-9252.574275,148.041188,76.609550
1370.582370,-9474.636058,74.020594,153.219100
1370.582695,-9474.636058,222.061783,-153.219100
1370.583021,-9400.615463,148.041188,0.000000
1370.583346,-9252.574275,0.000000,383.047749
1370.583672,-9548.656652,222.061783,76.609550
1370.583997,-9474.636058,74.020594,76.609550
1370.584323,-9400.615463,0.000000,0.000000
1370.584648,-9474.636058,0.000000,306.438199
1370.584974,-9400.615463,148.041188,229.828649
1370.585299,-9326.594869,148.041188,0.000000
1370.585625,-9548.656652,74.020594,306.438199
1370.585950,-9326.594869,0.000000,229.828649
1370.586276,-9400.615463,0.000000,0.000000
1370.586601,-9326.594869,0.000000,0.000000
1370.586927,-9474.636058,74.020594,0.000000
1370.587253,-9252.574275,74.020594,153.219100
1370.587578,-9548.656652,296.082377,0.000000
1370.587904,-9326.594869,148.041188,0.000000
1370.588229,-9326.594869,0.000000,76.609550
1370.588555,-9400.615463,148.041188,76.609550
1370.588880,-9326.594869,148.041188,306.438199
1370.589206,-9400.615463,222.061783,0.000000
1370.589531,-9474.636058,222.061783,229.828649
1370.589857,-9400.615463,222.061783,0.000000
1370.590182,-9474.636058,0.000000,459.657299
1370.590508,-9400.615463,222.061783,76.609550
1370.590833,-9400.615463,148.041188,383.047749
1370.591159,-9326.594869,148.041188,0.000000
1370.591484,-9400.615463,74.020594,0.000000
1370.591810,-9178.553681,0.000000,229.828649
1370.592135,-9474.636058,222.061783,153.219100
1370.592461,-9400.615463,148.041188,76.609550
1370.592786,-9178.553681,222.061783,0.000000
1370.593112,-9548.656652,370.102971,842.705048
1370.593437,-9548.656652,296.082377,0.000000
1370.593763,-9474.636058,0.000000,0.000000
1370.594088,-9400.615463,222.061783,76.609550
1370.594414,-9252.574275,148.041188,459.657299
1370.594739,-9474.636058,444.123565,306.438199
1370.595065,-9326.594869,74.020594,76.609550
1370.595390,-9326.594869,74.020594,229.828649
1370.595716,-9326.594869,222.061783,459.657299
1370.596041,-9622.677246,222.061783,0.000000
1370.596367,-9474.636058,74.020594,306.438199
1370.596692,-9474.636058,296.082377,0.000000
1370.597018,-9474.636058,74.020594,153.219100
1370.597343,-9696.697840,592.164754,0.000000
1370.597669,-9474.636058,296.082377,-76.609550
1370.597994,-9474.636058,222.061783,153.219100
1370.598320,-9548.656652,148.041188,0.000000
1370.598645,-9770.718434,370.102971,0.000000
1370.598971,-9474.636058,0.000000,-536.266849
1370.599296,-9252.574275,-518.144159,-229.828649
1370.599622,-9770.718434,-666.185348,-229.828649
1370.599947,-8882.471304,-370.102971,-306.438199
1370.600273,-8956.491898,-740.205942,0.000000
1370.600598,-9474.636058,-592.164754,153.219100
1370.600924,-9474.636058,-296.082377,536.266849
1370.601249,-9474.636058,0.000000,306.438199
1370.601575,-9474.636058,0.000000,0.000000
1370.601900,-9400.615463,-444.123565,0.000000
1370.602226,-9844.739029,0.000000,0.000000
1370.602551,-9104.533087,-296.082377,-459.657299
1370.602877,-8956.491898,-370.102971,-383.047749
1370.603202,-9844.739029,-666.185348,0.000000
1370.603528,-9918.759623,-1184.329507,0.000000
1370.603854,-9252.574275,-666.185348,-383.047749
1370.604179,-9844.739029,-666.185348,76.609550
1370.604505,-9770.718434,-444.123565,459.657299
1370.604830,-9474.636058,-1036.288319,842.705048
1370.605156,-9400.615463,-888.247130,536.266849
1370.605481,-9326.594869,-1184.329507,612.876398
1370.605807,-10066.800811,-1406.391290,383.047749
1370.606132,-9474.636058,-1554.432478,459.657299
1370.606458,-8734.430116,-1702.473667,612.876398
1370.606783,-9326.594869,-1850.514855,919.314598
1370.607109,-9474.636058,-1702.473667,383.047749
1370.607434,-8956.491898,-2368.659014,383.047749
1370.607760,-9252.574275,-2590.720797,919.314598
1370.608085,-9696.697840,-2516.700203,1072.533697
1370.608411,-9400.615463,-3034.844362,919.314598
1370.608736,-8956.491898,-3849.070898,1225.752797
1370.609062,-9622.677246,-3701.029710,1072.533697
1370.609387,-9696.697840,-3775.050304,1225.752797
1370.609713,-9400.615463,-4441.235652,0.000000
1370.610038,-9252.574275,-4589.276840,-306.438199
1370.610364,-9104.533087,-4737.318029,0.000000
1370.610689,-8438.347739,-4293.194464,-766.095498
1370.611015,-7920.203579,-4219.173869,-1532.190996
1370.611340,-8512.368333,-3404.947333,-306.438199
1370.611666,-9400.615463,-3256.906145,0.000000
1370.611991,-9252.574275,-3034.844362,536.266849
1370.612317,-9400.615463,-2738.761985,842.705048
1370.612642,-10436.903782,-2886.803174,1072.533697
1370.612968,-10436.903782,-3108.864956,1915.238745
1370.613293,-9770.718434,-3108.864956,76.609550
1370.613619,-9474.636058,-3256.906145,-919.314598
1370.613944,-10066.800811,-3256.906145,-536.266849
1370.614270,-9918.759623,-3552.988522,-766.095498
1370.614595,-9474.636058,-3182.885551,-1762.019645
1370.614921,-8882.471304,-2960.823768,-229.828649
1370.615246,-8808.450710,-1776.494261,229.828649
1370.615572,-8956.491898,-962.267725,995.924147
1370.615897,-8438.347739,0.000000,842.705048
1370.616223,-9178.553681,962.267725,919.314598
1370.616548,-10066.800811,592.164754,1991.848295
1370.616874,-10288.862594,148.041188,1225.752797
1370.617199,-10732.986159,-370.102971,1685.410096
1370.617525,-10214.842000,-444.123565,766.095498
1370.617850,-10955.047942,-1258.350101,459.657299
1370.618176,-10807.006753,-1332.370696,-1532.190996
1370.618501,-9474.636058,-1480.411884,-3370.820191
1370.618827,-7698.141797,-370.102971,-3600.648841
1370.619152,-6809.894666,0.000000,-2451.505594
1370.619478,-7105.977043,370.102971,-1455.581446
1370.619803,-6587.832884,1184.329507,153.219100
1370.620129,-6883.915261,1924.535449,2374.896044
1370.620455,-9252.574275,2220.617826,4903.011187
1370.620780,-11621.233289,1702.473667,4213.525239
1370.621106,-12509.480420,370.102971,2987.772442
1370.621431,-11843.295072,222.061783,1685.410096
1370.621757,-11695.253884,518.144159,-459.657299
1370.622082,-9326.594869,1110.308913,-2987.772442
1370.622408,-7105.977043,2072.576638,-4596.572988
1370.622733,-8290.306550,740.205942,-4060.306139
1370.623059,-8586.388927,-1554.432478,-2221.676944
1370.623384,-7031.956449,-2072.576638,0.000000
1370.623710,-7846.182985,-1554.432478,4290.134789
1370.624035,-10732.986159,-814.226536,7737.564530
1370.624361,-10584.944971,-592.164754,6971.469032
1370.624686,-9474.636058,962.267725,2604.724693
1370.625012,-9844.739029,2072.576638,-1915.238745
1370.625337,-11621.233289,1776.494261,-4673.182538
1370.625663,-11251.130318,-592.164754,-5592.497135
1370.625988,-8586.388927,-2294.638420,-5132.839837
1370.626314,-7031.956449,-3478.967927,-2681.334243
1370.626639,-7105.977043,-4071.132681,306.438199
1370.626965,-8290.306550,-2590.720797,1762.019645
1370.627290,-10584.944971,-1110.308913,1991.848295
1370.627616,-11029.068536,-444.123565,2298.286494
1370.627941,-11177.109724,-1554.432478,2911.162892
1370.628267,-11621.233289,-2960.823768,3907.087040
1370.628592,-11473.192101,-4219.173869,3064.381992
1370.628918,-9252.574275,-3404.947333,1532.190996
1370.629243,-7328.038826,-1480.411884,-1378.971896
1370.629569,-7031.956449,0.000000,-5822.325785
1370.629894,-9696.697840,-962.267725,-8656.879127
1370.630220,-10140.821405,-2960.823768,-7737.564530
1370.630545,-9178.553681,-4959.379811,-1378.971896
1370.630871,-7920.203579,-4663.297435,6971.469032
1370.631196,-8068.244768,-3256.906145,11644.651570
1370.631522,-9326.594869,-2442.679609,11261.603821
1370.631847,-11177.109724,-1776.494261,5056.230287
1370.632173,-11843.295072,-1184.329507,-383.047749
1370.632498,-13101.645173,-1628.453072,-4060.306139
1370.632824,-11547.212695,-2146.597232,-5822.325785
1370.633149,-9178.553681,-3775.050304,-2528.115143
1370.633475,-5699.585753,-3627.009116,-1685.410096
1370.633800,-4219.173869,-1924.535449,-1838.629195
1370.634126,-6587.832884,-2960.823768,-4136.915689
1370.634451,-10362.883188,-4441.235652,-4596.572988
1370.634777,-10732.986159,-3627.009116,1915.238745
1370.635102,-9178.553681,-1850.514855,7354.516781
1370.635428,-9548.656652,-2368.659014,9959.241474
1370.635753,-9474.636058,-2590.720797,9499.584175
1370.636079,-10140.821405,-1332.370696,4673.182538
1370.636404,-11251.130318,-592.164754,-2987.772442
1370.636730,-11769.274478,-444.123565,-12104.308868
1370.637056,-10510.924376,-2294.638420,-13330.061665
1370.637381,-8956.491898,-2368.659014,-6128.763984
1370.637707,-7105.977043,-2368.659014,383.047749
1370.638032,-5625.565159,-2590.720797,3983.696590
1370.638358,-5847.626942,-814.226536,5209.449386
1370.638683,-9178.553681,592.164754,5515.887586
1370.639009,-11251.130318,-962.267725,3907.087040
1370.639334,-11917.315666,-2294.638420,842.705048
1370.639660,-12139.377449,-1036.288319,2911.162892
1370.639985,-10955.047942,1184.329507,6358.592633
1370.640311,-8956.491898,1258.350101,2451.505594
1370.640636,-8068.244768,1776.494261,-5745.716235
1370.640962,-9104.533087,666.185348,-12640.575717
1370.641287,-9252.574275,0.000000,-12870.404366
1370.641613,-8660.409521,0.000000,-7048.078582
1370.641938,-9844.739029,74.020594,2221.676944
1370.642264,-9696.697840,-2220.617826,10801.946522
1370.642589,-8216.285956,-4367.215058,14709.033562
1370.642915,-8882.471304,-1924.535449,11108.384721
1370.643240,-12213.398043,1110.308913,2911.162892
1370.643566,-11695.253884,1924.535449,-4443.353888
1370.643891,-10140.821405,518.144159,-6128.763984
1370.644217,-10584.944971,1332.370696,-4903.011187
1370.644542,-7550.100608,1332.370696,-4903.011187
1370.644868,-5847.626942,1184.329507,-4136.915689
1370.645193,-8364.327145,-814.226536,-1991.848295
1370.645519,-9104.533087,-1258.350101,-1225.752797
1370.645844,-8068.244768,-1776.494261,612.876398
1370.646170,-9548.656652,-1850.514855,2451.505594
1370.646495,-12657.521608,-2664.741391,10495.508323
1370.646821,-13101.645173,-3923.091493,15015.471761
1370.647146,-8216.285956,-1110.308913,9039.926876
1370.647472,-5995.668130,2368.659014,1915.238745
1370.647797,-9474.636058,2368.659014,-6971.469032
1370.648123,-12509.480420,74.020594,-14019.547613
1370.648448,-9104.533087,0.000000,-16317.834107
1370.648774,-5995.668130,592.164754,-11108.384721
1370.649099,-7402.059420,-1776.494261,536.266849
1370.649425,-9474.636058,-6365.771101,7890.783629
1370.649750,-7550.100608,-5699.585753,9652.803275
1370.650076,-6883.915261,-1184.329507,9422.974625
1370.650401,-12065.356855,-296.082377,4903.011187
1370.650727,-14656.077652,-4367.215058,1838.629195
1370.651052,-11769.274478,-4515.256246,536.266849
1370.651378,-7920.203579,296.082377,612.876398
1370.651703,-7179.997637,3034.844362,-1149.143247
1370.652029,-8734.430116,-148.041188,-7048.078582
1370.652354,-10807.006753,-962.267725,-9422.974625
1370.652680,-8660.409521,444.123565,-9729.412825
1370.653005,-9104.533087,-2146.597232,-5209.449386
1370.653331,-10288.862594,-7179.997637,1072.533697
1370.653657,-9252.574275,-6735.874072,10418.898773
1370.653982,-8068.244768,-3552.988522,17850.025103
1370.654308,-4811.338623,-3182.885551,10495.508323
1370.654633,-7846.182985,-3330.926739,766.095498
1370.654959,-14285.974681,444.123565,-3447.429741
1370.655284,-13693.809927,4367.215058,-6894.859482
1370.655610,-9844.739029,3552.988522,-8427.050478
1370.655935,-9104.533087,222.061783,-6358.592633
1370.656261,-10214.842000,444.123565,-459.657299
1370.656586,-6735.874072,-814.226536,2757.943793
1370.656912,-4885.359217,-2812.782580,-919.314598
1370.657237,-8142.265362,-2738.761985,459.657299
1370.657563,-11103.089130,0.000000,4060.306139
1370.657888,-11103.089130,-814.226536,6741.640382
1370.658214,-8586.388927,-1628.453072,3983.696590
1370.658539,-10288.862594,1554.432478,3600.648841
1370.658865,-13397.727550,3849.070898,229.828649
1370.659190,-9400.615463,3923.091493,-5592.497135
1370.659516,-7994.224174,2590.720797,-9116.536426
1370.659841,-9918.759623,4811.338623,-7967.393179
1370.660167,-9622.677246,5625.565159,-1915.238745
1370.660492,-8364.327145,1924.535449,0.000000
1370.660818,-8068.244768,-1332.370696,1762.019645
1370.661143,-8142.265362,0.000000,4366.744339
1370.661469,-8660.409521,1332.370696,4366.744339
1370.661794,-7476.080014,-814.226536,76.609550
1370.662120,-11251.130318,814.226536,2221.676944
1370.662445,-12731.542202,4737.318029,4136.915689
1370.662771,-9030.512492,5477.523971,1302.362347
1370.663096,-8882.471304,2664.741391,-4060.306139
1370.663422,-11325.150913,2368.659014,-6205.373534
1370.663747,-11251.130318,4145.153275,-5745.716235
1370.664073,-6291.750507,3182.885551,-5898.935335
1370.664398,-5107.421000,518.144159,-2911.162892
1370.664724,-8586.388927,888.247130,3524.039291
1370.665049,-9400.615463,1258.350101,8197.221829
1370.665375,-8068.244768,-666.185348,7048.078582
1370.665700,-9548.656652,-2146.597232,3983.696590
1370.666026,-14434.015869,222.061783,4903.011187
1370.666351,-11843.295072,1480.411884,2145.067394
1370.666677,-7624.121203,2072.576638,-1991.848295
1370.667002,-9104.533087,1628.453072,-1225.752797
1370.667328,-13175.665768,3849.070898,-2068.457845
1370.667653,-9770.718434,2812.782580,-5056.230287
1370.667979,-7328.038826,-1036.288319,-8503.660028
1370.668304,-8956.491898,-2146.597232,-3217.601092
1370.668630,-9178.553681,-2368.659014,2221.676944
1370.668955,-6809.894666,-3108.864956,3524.039291
1370.669281,-6143.709319,-4071.132681,5745.716235
1370.669606,-10732.986159,-2442.679609,10189.070123
1370.669932,-13323.706956,0.000000,7048.078582
1370.670257,-9474.636058,222.061783,-1991.848295
1370.670583,-8808.450710,-666.185348,-5439.278036
1370.670908,-12213.398043,74.020594,-5286.058936
1370.671233,-10732.986159,1850.514855,-5209.449386
1370.671559,-5847.626942,-148.041188,-6435.202183
1370.671884,-7031.956449,-2146.597232,-3677.258390
1370.672210,-10732.986159,-2368.659014,2987.772442
1370.672535,-9400.615463,-1850.514855,3064.381992
1370.672861,-7550.100608,-3701.029710,1302.362347
1370.673186,-9918.759623,-4367.215058,3907.087040
1370.673512,-12287.418637,-3478.967927,7890.783629
1370.673837,-10288.862594,-2368.659014,4596.572988
1370.674163,-7698.141797,-1110.308913,-1149.143247
1370.674488,-10066.800811,370.102971,-2298.286494
1370.674814,-11843.295072,2146.597232,-3294.210641
1370.675139,-8586.388927,2220.617826,-6894.859482
1370.675465,-7402.059420,222.061783,-7124.688131
1370.675790,-9548.656652,-1110.308913,-1532.190996
1370.676116,-9252.574275,-2220.617826,3524.039291
1370.676441,-7772.162391,-2590.720797,4903.011187
1370.676767,-7105.977043,-3330.926739,5822.325785
1370.677092,-10436.903782,-2294.638420,7048.078582
1370.677418,-11843.295072,-296.082377,5209.449386
1370.677743,-9622.677246,1036.288319,-2145.067394
1370.678069,-10214.842000,0.000000,-4290.134789
1370.678394,-10436.903782,74.020594,-3983.696590
1370.678720,-9400.615463,1628.453072,-4673.182538
1370.679045,-6291.750507,1110.308913,-6052.154434
1370.679371,-6587.832884,222.061783,-4366.744339
1370.679696,-9030.512492,1628.453072,995.924147
1370.680022,-9030.512492,2072.576638,2834.553343
1370.680347,-9326.594869,0.000000,2834.553343
1370.680673,-9474.636058,-2368.659014,5132.839837
1370.680998,-12065.356855,-370.102971,7814.174080
1370.681324,-11621.233289,1332.370696,5515.887586
1370.681649,-8068.244768,3034.844362,-1608.800546
1370.681975,-9474.636058,2516.700203,-3753.867940
1370.682300,-11843.295072,4367.215058,-4979.620737
1370.682626,-9326.594869,4811.338623,-6741.640382
1370.682951,-7179.997637,2146.597232,-7431.126331
1370.683277,-9104.533087,962.267725,-2451.505594
1370.683602,-9030.512492,1184.329507,4366.744339
1370.683928,-8068.244768,666.185348,4673.182538
1370.684253,-7105.977043,-740.205942,2834.553343
1370.684579,-10584.944971,0.000000,5209.449386
1370.684904,-13101.645173,2960.823768,6128.763984
1370.685230,-10436.903782,3182.885551,1532.190996
1370.685555,-8068.244768,1850.514855,-2145.067394
1370.685881,-9696.697840,2146.597232,-1838.629195
1370.686206,-11177.109724,4145.153275,-3830.477490
1370.686532,-7772.162391,3330.926739,-6971.469032
1370.686857,-6661.853478,740.205942,-6435.202183
1370.687183,-10658.965565,740.205942,536.266849
1370.687508,-10140.821405,1406.391290,4826.401637
1370.687834,-7698.141797,-1480.411884,3140.991542
1370.688159,-7846.182985,-3256.906145,4673.182538
1370.688485,-11473.192101,-888.247130,7431.126331
1370.688810,-11103.089130,148.041188,3600.648841
1370.689136,-7328.038826,0.000000,-3064.381992
1370.689461,-8956.491898,740.205942,-3753.867940
1370.689787,-12361.439231,2664.741391,-2298.286494
1370.690112,-10140.821405,3182.885551,-3447.429741
1370.690438,-7105.977043,0.000000,-6818.249932
1370.690763,-8956.491898,-1998.556043,-2451.505594
1370.691089,-10214.842000,-1258.350101,3753.867940
1370.691414,-8660.409521,-1924.535449,3524.039291
1370.691740,-7254.018232,-3552.988522,2834.553343
1370.692065,-11029.068536,-2590.720797,6435.202183
1370.692391,-12953.603985,-444.123565,7431.126331
1370.692716,-8956.491898,-666.185348,-306.438199
1370.693042,-7698.141797,-962.267725,-5209.449386
1370.693367,-10584.944971,-148.041188,-4136.915689
1370.693693,-11621.233289,962.267725,-3983.696590
1370.694018,-6809.894666,-518.144159,-6281.983084
1370.694344,-6957.935855,-1554.432478,-4519.963438
1370.694669,-11029.068536,-814.226536,2145.067394
1370.694995,-10288.862594,-444.123565,5362.668486
1370.695320,-8586.388927,-2146.597232,2987.772442
1370.695646,-7920.203579,-3404.947333,3524.039291
1370.695971,-11695.253884,-2812.782580,6971.469032
1370.696297,-11843.295072,-1850.514855,4596.572988
1370.696622,-8068.244768,-148.041188,-1455.581446
1370.696948,-9178.553681,962.267725,-2834.553343
1370.697273,-11251.130318,2442.679609,-2834.553343
1370.697599,-9178.553681,1628.453072,-5362.668486
1370.697924,-7179.997637,-1110.308913,-7967.393179
1370.698250,-8438.347739,-1924.535449,-3140.991542
1370.698575,-10362.883188,-1406.391290,4213.525239
1370.698901,-8882.471304,-1258.350101,4290.134789
1370.699226,-7105.977043,-2664.741391,3524.039291
1370.699552,-9696.697840,-1480.411884,4826.401637
1370.699877,-11843.295072,518.144159,4443.353888
1370.700203,-9992.780217,888.247130,-1225.752797
1370.700528,-7624.121203,444.123565,-4290.134789
1370.700854,-9844.739029,592.164754,-1149.143247
1370.701179,-11103.089130,2220.617826,153.219100
1370.701505,-9030.512492,1850.514855,-3064.381992
1370.701830,-7402.059420,1184.329507,-4596.572988
1370.702156,-10658.965565,2516.700203,-689.485948
1370.702481,-10955.047942,2960.823768,1991.848295
1370.702806,-8660.409521,222.061783,-306.438199
1370.703132,-8142.265362,-1998.556043,1838.629195
1370.703457,-11103.089130,-666.185348,6358.592633
1370.703783,-11103.089130,1406.391290,5209.449386
1370.704108,-7550.100608,2072.576638,-689.485948
1370.704434,-8512.368333,2886.803174,-3217.601092
1370.704759,-11325.150913,4959.379811,-2374.896044
1370.705085,-10066.800811,4441.235652,-4366.744339
1370.705410,-7624.121203,1332.370696,-6435.202183
1370.705736,-8956.491898,-296.082377,-459.657299
1370.706061,-9770.718434,1184.329507,5515.887586
1370.706387,-8808.450710,1554.432478,5056.230287
1370.706712,-6587.832884,296.082377,1149.143247
1370.707038,-9252.574275,444.123565,1455.581446
1370.707363,-13175.665768,1406.391290,3600.648841
1370.707689,-10881.027347,370.102971,-919.314598
1370.708014,-8216.285956,-888.247130,-1991.848295
1370.708340,-8808.450710,296.082377,995.924147
1370.708665,-10214.842000,3108.864956,1302.362347
1370.708991,-7550.100608,1924.535449,-3753.867940
1370.709316,-7105.977043,-370.102971,-7431.126331
1370.709642,-11769.274478,74.020594,-1991.848295
1370.709967,-12361.439231,666.185348,3217.601092
1370.710293,-9030.512492,-962.267725,2834.553343
1370.710618,-7179.997637,-2368.659014,4903.011187
1370.710944,-9992.780217,-1702.473667,7967.393179
1370.711269,-11029.068536,-296.082377,4290.134789
1370.711595,-8882.471304,-962.267725,-4826.401637
1370.711920,-9696.697840,-666.185348,-6435.202183
1370.712246,-11991.336260,1554.432478,-536.266849
1370.712571,-9474.636058,2294.638420,-612.876398
1370.712897,-5995.668130,0.000000,-3677.258390
1370.713222,-7254.018232,-1554.432478,-1991.848295
1370.713548,-10807.006753,-1850.514855,1608.800546
1370.713873,-10436.903782,-1554.432478,229.828649
1370.714199,-6957.935855,-3108.864956,-1225.752797
1370.714524,-8660.409521,-1480.411884,2681.334243
1370.714850,-11473.192101,518.144159,8044.002729
1370.715175,-8956.491898,296.082377,3447.429741
1370.715501,-7550.100608,-740.205942,-2987.772442
1370.715826,-9992.780217,-592.164754,-3294.210641
1370.716152,-12213.398043,1184.329507,-2604.724693
1370.716477,-8660.409521,518.144159,-3447.429741
1370.716803,-6661.853478,-370.102971,-3677.258390
1370.717128,-9770.718434,148.041188,2757.943793
1370.717454,-11621.233289,962.267725,5362.668486
1370.717779,-9548.656652,-1036.288319,229.828649
1370.718105,-7920.203579,-2220.617826,-1225.752797
1370.718430,-10436.903782,-1776.494261,2068.457845
1370.718756,-11695.253884,-888.247130,2987.772442
1370.719081,-7698.141797,-1258.350101,-689.485948
1370.719407,-6513.812290,0.000000,-1915.238745
1370.719732,-10658.965565,1628.453072,919.314598
1370.720058,-10955.047942,1924.535449,-1225.752797
1370.720383,-8216.285956,148.041188,-5822.325785
1370.720709,-7476.080014,-962.267725,-3370.820191
1370.721034,-9844.739029,0.000000,2757.943793
1370.721360,-9696.697840,-888.247130,3907.087040
1370.721685,-6809.894666,-2072.576638,1072.533697
1370.722011,-8660.409521,-888.247130,1455.581446
1370.722336,-11843.295072,1184.329507,2681.334243
1370.722662,-10362.883188,518.144159,-1685.410096
1370.722987,-8068.244768,-296.082377,-5132.839837
1370.723313,-9474.636058,-370.102971,-1532.190996
1370.723638,-10955.047942,1184.329507,1762.019645
1370.723964,-8808.450710,888.247130,0.000000
1370.724289,-7179.997637,0.000000,-2298.286494
1370.724615,-10362.883188,888.247130,0.000000
1370.724940,-11621.233289,2368.659014,2911.162892
1370.725266,-9474.636058,444.123565,0.000000
1370.725591,-8364.327145,-1258.350101,383.047749
1370.725917,-10436.903782,-592.164754,5132.839837
1370.726242,-11029.068536,1184.329507,5056.230287
1370.726568,-7994.224174,1110.308913,-383.047749
1370.726893,-8216.285956,222.061783,-3140.991542
1370.727219,-11917.315666,2368.659014,-1685.410096
1370.727544,-11843.295072,2516.700203,-1072.533697
1370.727870,-7846.182985,888.247130,-4596.572988
1370.728195,-7698.141797,-1258.350101,-995.924147
1370.728521,-9474.636058,0.000000,4979.620737
1370.728846,-10510.924376,740.205942,3830.477490
1370.729172,-6735.874072,-888.247130,-1302.362347
1370.729497,-8290.306550,-370.102971,-1072.533697
1370.729823,-11917.315666,1628.453072,2681.334243
1370.730148,-9770.718434,1406.391290,919.314598
1370.730474,-6587.832884,-296.082377,-2911.162892
1370.730799,-7698.141797,0.000000,-153.219100
1370.731125,-11029.068536,1850.514855,2451.505594
1370.731450,-10584.944971,1036.288319,-2145.067394
1370.731776,-6957.935855,-666.185348,-5362.668486
1370.732101,-10288.862594,740.205942,-1455.581446
1370.732427,-12139.377449,2368.659014,4826.401637
1370.732752,-9030.512492,444.123565,1532.190996
1370.733078,-6661.853478,-1702.473667,-995.924147
1370.733403,-9770.718434,-962.267725,3140.991542
1370.733729,-11769.274478,518.144159,2145.067394
1370.734054,-9178.553681,0.000000,-2604.724693
1370.734379,-7402.059420,0.000000,-4136.915689
1370.734705,-11251.130318,2146.597232,995.924147
1370.735030,-11177.109724,2812.782580,3447.429741
1370.735356,-8142.265362,-666.185348,-2374.896044
1370.735681,-7846.182985,-1850.514855,-1838.629195
1370.736007,-11621.233289,-444.123565,3600.648841
1370.736332,-11473.192101,74.020594,2604.724693
1370.736658,-6809.894666,-1480.411884,-612.876398
1370.736983,-8364.327145,74.020594,383.047749
1370.737309,-11843.295072,1258.350101,4213.525239
1370.737634,-10362.883188,74.020594,612.876398
1370.737960,-7105.977043,-1776.494261,-6128.763984
1370.738285,-8734.430116,-1998.556043,-2757.943793
1370.738611,-10732.986159,222.061783,1378.971896
1370.738936,-9030.512492,0.000000,-919.314598
1370.739262,-6069.688724,-1332.370696,-3294.210641
1370.739587,-9622.677246,0.000000,536.266849
1370.739913,-12361.439231,1184.329507,3370.820191
1370.740238,-9474.636058,-296.082377,-536.266849
1370.740564,-7105.977043,-2220.617826,-1915.238745
1370.740889,-9474.636058,-888.247130,2528.115143
1370.741215,-11103.089130,592.164754,3907.087040
1370.741540,-8660.409521,592.164754,-1991.848295
1370.741866,-6883.915261,296.082377,-4136.915689
1370.742191,-11103.089130,1924.535449,-536.266849
1370.742517,-12213.398043,1406.391290,1072.533697
1370.742842,-8808.450710,-666.185348,-3524.039291
1370.743168,-7920.203579,-1924.535449,-1532.190996
1370.743493,-10732.986159,148.041188,4366.744339
1370.743819,-10288.862594,740.205942,4673.182538
1370.744144,-6883.915261,-444.123565,-1149.143247
1370.744470,-8068.244768,-592.164754,-1532.190996
1370.744795,-12361.439231,888.247130,2528.115143
1370.745121,-10658.965565,962.267725,1378.971896
1370.745446,-7328.038826,-148.041188,-2068.457845
1370.745772,-8438.347739,0.000000,766.095498
1370.746097,-11103.089130,1776.494261,4136.915689
1370.746423,-9474.636058,518.144159,0.000000
1370.746748,-6661.853478,-1332.370696,-4519.963438
1370.747074,-9992.780217,-444.123565,-612.876398
1370.747399,-12213.398043,1258.350101,4366.744339
1370.747725,-9104.533087,444.123565,1149.143247
1370.748050,-6217.729913,-888.247130,-1455.581446
1370.748376,-9696.697840,0.000000,842.705048
1370.748701,-11769.274478,740.205942,1685.410096
1370.749027,-8586.388927,-296.082377,-3600.648841
1370.749352,-6513.812290,-592.164754,-4903.011187
1370.749678,-10140.821405,1184.329507,2145.067394
1370.750003,-11103.089130,2368.659014,4060.306139
1370.750329,-7994.224174,592.164754,-995.924147
1370.750654,-7772.162391,-222.061783,-2451.505594
1370.750980,-11177.109724,740.205942,995.924147
1370.751305,-11843.295072,740.205942,1072.533697
1370.751631,-8290.306550,-666.185348,-2834.553343
1370.751956,-7624.121203,-518.144159,-383.047749
1370.752282,-10658.965565,1776.494261,5209.449386
1370.752607,-10807.006753,1480.411884,2528.115143
1370.752933,-8216.285956,-296.082377,-3753.867940
1370.753258,-9548.656652,-296.082377,-2987.772442
1370.753584,-11251.130318,1332.370696,1072.533697
1370.753909,-9474.636058,222.061783,0.000000
1370.754235,-6513.812290,-1850.514855,-1838.629195
1370.754560,-8586.388927,-370.102971,2145.067394
1370.754886,-11325.150913,1998.556043,5975.544884
1370.755211,-9992.780217,814.226536,842.705048
1370.755537,-8290.306550,-1554.432478,-3217.601092
1370.755862,-10436.903782,-1258.350101,383.047749
1370.756188,-10955.047942,444.123565,2987.772442
1370.756513,-8142.265362,-518.144159,0.000000
1370.756839,-6291.750507,-1332.370696,-1915.238745
1370.757164,-10288.862594,666.185348,1149.143247
1370.757490,-11325.150913,1924.535449,1915.238745
1370.757815,-8808.450710,74.020594,-4673.182538
1370.758141,-7846.182985,-1924.535449,-5132.839837
1370.758466,-11177.109724,-518.144159,919.314598
1370.758792,-11103.089130,0.000000,3524.039291
1370.759117,-6735.874072,-1036.288319,-766.095498
1370.759443,-6661.853478,-1184.329507,383.047749
1370.759768,-11325.150913,1332.370696,2911.162892
1370.760094,-11621.233289,1776.494261,842.705048
1370.760419,-8216.285956,-592.164754,-5822.325785
1370.760745,-8660.409521,-814.226536,-2528.115143
1370.761070,-11621.233289,740.205942,3217.601092
1370.761396,-9178.553681,222.061783,1302.362347
1370.761721,-5921.647536,-1110.308913,-2451.505594
1370.762047,-9326.594869,-444.123565,-76.609550
1370.762372,-12953.603985,1258.350101,3217.601092
1370.762698,-10436.903782,-74.020594,-306.438199
1370.763023,-7179.997637,-1554.432478,-3294.210641
1370.763349,-9104.533087,-888.247130,1838.629195
1370.763674,-10658.965565,888.247130,4979.620737
1370.764000,-8586.388927,0.000000,0.000000
1370.764325,-6957.935855,-888.247130,-2987.772442
1370.764651,-11473.192101,666.185348,306.438199
1370.764976,-12435.459826,2590.720797,3370.820191
1370.765302,-8364.327145,1332.370696,-1072.533697
1370.765627,-7624.121203,148.041188,-1762.019645
1370.765953,-10807.006753,444.123565,3294.210641
1370.766279,-11399.171507,962.267725,3064.381992
1370.766604,-7994.224174,-666.185348,-2757.943793
1370.766930,-7772.162391,74.020594,-2451.505594
1370.767255,-10955.047942,2368.659014,2068.457845
1370.767581,-10140.821405,2368.659014,2374.896044
1370.767906,-7402.059420,370.102971,-3753.867940
1370.768232,-9178.553681,-814.226536,-3064.381992
1370.768557,-11991.336260,740.205942,1608.800546
1370.768883,-9918.759623,1110.308913,-153.219100
1370.769208,-4959.379811,74.020594,-2145.067394
1370.769534,-8142.265362,370.102971,383.047749
1370.769859,-11399.171507,1924.535449,3677.258390
1370.770185,-10066.800811,592.164754,459.657299
1370.770510,-7994.224174,-1036.288319,-4673.182538
1370.770836,-9844.739029,-518.144159,0.000000
1370.771161,-11399.171507,1480.411884,2757.943793
1370.771487,-9178.553681,518.144159,-383.047749
1370.771812,-5403.503377,-1184.329507,-2145.067394
1370.772138,-9622.677246,0.000000,1378.971896
1370.772463,-12731.542202,1110.308913,3140.991542
1370.772789,-9474.636058,74.020594,-1762.019645
1370.773115,-8290.306550,-1258.350101,-3217.601092
1370.773440,-10140.821405,74.020594,2451.505594
1370.773766,-11251.130318,814.226536,2528.115143
1370.774091,-7846.182985,-1480.411884,-1455.581446
1370.774417,-7846.182985,-1924.535449,-536.266849
1370.774742,-11843.295072,-296.082377,4213.525239
1370.775068,-11325.150913,888.247130,3830.477490
1370.775393,-7550.100608,-1184.329507,-1302.362347
1370.775719,-8438.347739,-592.164754,-1455.581446
1370.776044,-11399.171507,370.102971,2834.553343
1370.776370,-10436.903782,296.082377,306.438199
1370.776695,-6957.935855,-2072.576638,-3753.867940
1370.777021,-8808.450710,-1036.288319,-536.266849
1370.777346,-10732.986159,1258.350101,3753.867940
1370.777672,-8734.430116,814.226536,1685.410096
1370.777997,-7105.977043,-1184.329507,-4290.134789
1370.778323,-9696.697840,-814.226536,-2451.505594
1370.778648,-11843.295072,888.247130,1302.362347
1370.778974,-9400.615463,0.000000,-2145.067394
1370.779300,-6587.832884,-1036.288319,-1838.629195
1370.779625,-9474.636058,592.164754,2834.553343
1370.779951,-11399.171507,2368.659014,4060.306139
1370.780276,-8512.368333,814.226536,-536.266849
1370.780602,-7846.182985,0.000000,-4443.353888
1370.780927,-10881.027347,444.123565,536.266849
1370.781253,-11547.212695,1332.370696,1762.019645
1370.781578,-7624.121203,-222.061783,-1762.019645
1370.781904,-6365.771101,-814.226536,-536.266849
1370.782229,-10658.965565,1258.350101,3677.258390
1370.782555,-11399.171507,1776.494261,2528.115143
1370.782880,-7994.224174,-592.164754,-3294.210641
1370.783206,-8734.430116,-1184.329507,-3064.381992
1370.783531,-11177.109724,74.020594,2604.724693
1370.783857,-10066.800811,222.061783,2528.115143
1370.784182,-6809.894666,-1184.329507,-1455.581446
1370.784508,-7698.141797,-370.102971,1608.800546
1370.784833,-11473.192101,2442.679609,4366.744339
1370.785159,-10436.903782,1554.432478,76.609550
1370.785484,-7994.224174,-1258.350101,-4596.572988
1370.785810,-10140.821405,-592.164754,-383.047749
1370.786136,-11621.233289,888.247130,3600.648841
1370.786461,-8512.368333,-444.123565,612.876398
1370.786787,-6143.709319,-1036.288319,-2374.896044
1370.787112,-9400.615463,592.164754,1072.533697
1370.787438,-11769.274478,2294.638420,2451.505594
1370.787763,-9622.677246,518.144159,-3753.867940
1370.788089,-8142.265362,-1332.370696,-5056.230287
1370.788414,-11325.150913,-370.102971,1838.629195
1370.788740,-11177.109724,1332.370696,3600.648841
1370.789065,-6661.853478,666.185348,-459.657299
1370.789391,-6365.771101,0.000000,-1608.800546
1370.789716,-11177.109724,1998.556043,2068.457845
1370.790042,-11695.253884,2072.576638,1072.533697
1370.790367,-8290.306550,74.020594,-3907.087040
1370.790693,-8808.450710,-740.205942,-2068.457845
1370.791018,-11695.253884,1332.370696,4596.572988
1370.791344,-10140.821405,518.144159,2987.772442
1370.791669,-6513.812290,-444.123565,-2987.772442
1370.791995,-7772.162391,-296.082377,-689.485948
1370.792321,-11843.295072,2368.659014,3064.381992
1370.792646,-10214.842000,1332.370696,-306.438199
1370.792972,-7105.977043,-740.205942,-3600.648841
1370.793297,-9918.759623,-148.041188,689.485948
1370.793623,-11399.171507,962.267725,4596.572988
1370.793948,-8882.471304,370.102971,0.000000
1370.794274,-5847.626942,-1110.308913,-3140.991542
1370.794599,-9326.594869,444.123565,1225.752797
1370.794925,-12139.377449,1702.473667,4060.306139
1370.795250,-8882.471304,0.000000,-1225.752797
1370.795576,-7846.182985,-1998.556043,-2451.505594
1370.795901,-11251.130318,-740.205942,2911.162892
1370.796227,-11251.130318,814.226536,3064.381992
1370.796552,-7846.182985,-370.102971,-2451.505594
1370.796878,-6957.935855,-1036.288319,-3370.820191
1370.797203,-10436.903782,814.226536,1455.581446
1370.797529,-11177.109724,1110.308913,2374.896044
1370.797854,-8290.306550,-1036.288319,-4136.915689
1370.798180,-8586.388927,-1924.535449,-2451.505594
1370.798505,-11547.212695,222.061783,2681.334243
1370.798831,-10362.883188,370.102971,1302.362347
1370.799157,-6883.915261,-1036.288319,-2681.334243
1370.799482,-8512.368333,-1258.350101,-919.314598
1370.799808,-12509.480420,1184.329507,4136.915689
1370.800133,-10436.903782,1184.329507,1532.190996
1370.800459,-7698.141797,74.020594,-2834.553343
1370.800784,-9696.697840,-518.144159,0.000000
1370.801110,-11251.130318,1184.329507,2604.724693
1370.801435,-9030.512492,222.061783,-919.314598
1370.801761,-6365.771101,-518.144159,-3600.648841
1370.802086,-10362.883188,74.020594,1072.533697
1370.802412,-12509.480420,2072.576638,4596.572988
1370.802737,-9178.553681,296.082377,-459.657299
1370.803063,-7179.997637,-1258.350101,-2834.553343
1370.803388,-10214.842000,-370.102971,995.924147
1370.803714,-11769.274478,814.226536,2451.505594
1370.804039,-7402.059420,0.000000,-1991.848295
1370.804365,-6439.791695,-518.144159,-1762.019645
1370.804690,-9918.759623,1554.432478,3370.820191
1370.805016,-11177.109724,2442.679609,3140.991542
1370.805341,-8290.306550,-74.020594,-2911.162892
1370.805667,-8216.285956,-666.185348,-2451.505594
1370.805993,-11325.150913,518.144159,2911.162892
1370.806318,-10658.965565,592.164754,2221.676944
1370.806644,-7105.977043,-1110.308913,-2298.286494
1370.806969,-8068.244768,-444.123565,-229.828649
1370.807295,-11843.295072,2294.638420,3524.039291
1370.807620,-10436.903782,2146.597232,-689.485948
1370.807946,-7698.141797,-518.144159,-5515.887586
1370.808271,-9844.739029,-444.123565,-2068.457845
1370.808597,-11547.212695,962.267725,3064.381992
1370.808922,-9030.512492,370.102971,919.314598
1370.809248,-6661.853478,-1258.350101,-1455.581446
1370.809573,-9844.739029,666.185348,2298.286494
1370.809899,-12139.377449,2590.720797,4519.963438
1370.810224,-8956.491898,1184.329507,-1455.581446
1370.810550,-7402.059420,-1554.432478,-4060.306139
1370.810875,-10955.047942,-1258.350101,1455.581446
1370.811201,-11621.233289,592.164754,3830.477490
1370.811526,-7698.141797,-370.102971,-766.095498
1370.811852,-6365.771101,0.000000,-1915.238745
1370.812178,-10732.986159,1406.391290,2451.505594
1370.812503,-11769.274478,1850.514855,1302.362347
1370.812829,-7920.203579,-222.061783,-4826.401637
1370.813154,-8068.244768,-1702.473667,-2681.334243
1370.813480,-10510.924376,-296.082377,3677.258390
1370.813805,-10288.862594,0.000000,4136.915689
1370.814131,-6291.750507,-666.185348,-1762.019645
1370.814456,-7846.182985,148.041188,-1378.971896
1370.814782,-12361.439231,2368.659014,2298.286494
1370.815107,-10584.944971,1924.535449,-689.485948
1370.815433,-8142.265362,-740.205942,-4826.401637
1370.815758,-9474.636058,-1184.329507,689.485948
1370.816084,-11103.089130,740.205942,5592.497135
1370.816409,-9326.594869,370.102971,1072.533697
1370.816735,-6217.729913,-592.164754,-3217.601092
1370.817060,-10436.903782,1258.350101,-1838.629195
1370.817386,-12583.501014,2812.782580,1915.238745
1370.817711,-8956.491898,592.164754,-2604.724693
1370.818037,-7624.121203,-1850.514855,-3370.820191
1370.818362,-10066.800811,-740.205942,2911.162892
1370.818688,-11029.068536,666.185348,4290.134789
1370.819014,-7179.997637,-222.061783,-766.095498
1370.819339,-7179.997637,-592.164754,-2528.115143
1370.819665,-12065.356855,962.267725,1302.362347
1370.819990,-11843.295072,1702.473667,2451.505594
1370.820316,-7624.121203,0.000000,-2221.676944
1370.820641,-7550.100608,-1998.556043,-383.047749
1370.820967,-10732.986159,0.000000,4903.011187
1370.821292,-10362.883188,74.020594,2374.896044
1370.821618,-6661.853478,-814.226536,-3524.039291
1370.821943,-8290.306550,-666.185348,-2834.553343
1370.822269,-11695.253884,1480.411884,1838.629195
1370.822594,-9844.739029,370.102971,459.657299
1370.822920,-7179.997637,-1036.288319,-3753.867940
1370.823245,-8438.347739,-1406.391290,383.047749
1370.823571,-10584.944971,370.102971,3217.601092
1370.823896,-9548.656652,0.000000,-536.266849
1370.824222,-6957.935855,-1184.329507,-2834.553343
1370.824547,-10214.842000,74.020594,612.876398
1370.824873,-12583.501014,1998.556043,4749.792088
1370.825199,-8660.409521,888.247130,153.219100
1370.825524,-7031.956449,-1110.308913,-2068.457845
1370.825850,-9474.636058,-740.205942,2068.457845
1370.826175,-11473.192101,888.247130,2298.286494
1370.826501,-9474.636058,-296.082377,-2604.724693
1370.826826,-8512.368333,-1184.329507,-3677.258390
1370.827152,-11473.192101,592.164754,2145.067394
1370.827477,-11399.171507,2072.576638,3524.039291
1370.827803,-7994.224174,-296.082377,-2834.553343
1370.828128,-7402.059420,-1924.535449,-2451.505594
1370.828454,-10510.924376,-370.102971,1991.848295
1370.828779,-11251.130318,222.061783,1915.238745
1370.829105,-8068.244768,-1036.288319,-2068.457845
1370.829430,-8734.430116,-1184.329507,0.000000
1370.829756,-11325.150913,1110.308913,4979.620737
1370.830081,-9918.759623,2072.576638,2374.896044
1370.830407,-8068.244768,-740.205942,-3370.820191
1370.830732,-8364.327145,-2072.576638,-1302.362347
1370.831058,-10362.883188,-296.082377,2911.162892
1370.831383,-9400.615463,-444.123565,1072.533697
1370.831709,-7031.956449,-1480.411884,-1225.752797
1370.832035,-10066.800811,296.082377,689.485948
1370.832360,-12139.377449,3108.864956,3447.429741
1370.832686,-8882.471304,1702.473667,-2451.505594
1370.833011,-7105.977043,-296.082377,-5592.497135
1370.833337,-10510.924376,-814.226536,-383.047749
1370.833662,-11473.192101,1406.391290,3217.601092
1370.833988,-7846.182985,888.247130,766.095498
1370.834313,-6513.812290,296.082377,-919.314598
1370.834639,-10584.944971,2368.659014,1838.629195
1370.834964,-12361.439231,4071.132681,2068.457845
1370.835290,-8364.327145,1776.494261,-4979.620737
1370.835615,-7624.121203,-222.061783,-3524.039291
1370.835941,-11103.089130,0.000000,3370.820191
1370.836266,-11177.109724,1110.308913,4060.306139
1370.836592,-6883.915261,0.000000,76.609550
1370.836917,-7328.038826,814.226536,-995.924147
1370.837243,-11547.212695,2664.741391,1762.019645
1370.837568,-11177.109724,1924.535449,-612.876398
1370.837894,-7698.141797,-666.185348,-5745.716235
1370.838219,-7994.224174,-1184.329507,-995.924147
1370.838545,-10214.842000,296.082377,4826.401637
1370.838871,-9992.780217,222.061783,2834.553343
1370.839196,-6513.812290,-1406.391290,-1685.410096
1370.839522,-9252.574275,0.000000,-995.924147
1370.839847,-12509.480420,1406.391290,2604.724693
1370.840173,-9474.636058,222.061783,-842.705048
1370.840498,-8290.306550,-2294.638420,-2374.896044
1370.840824,-9918.759623,-2368.659014,3983.696590
1370.841149,-10732.986159,-296.082377,5439.278036
1370.841475,-8586.388927,-370.102971,153.219100
1370.841800,-7105.977043,-1554.432478,-3830.477490
1370.842126,-11177.109724,0.000000,-2298.286494
1370.842451,-12435.459826,740.205942,842.705048
1370.842777,-8290.306550,-1258.350101,-3140.991542
1370.843102,-7772.162391,-2664.741391,-1608.800546
1370.843428,-9992.780217,-1776.494261,5209.449386
1370.843753,-11177.109724,0.000000,3370.820191
1370.844079,-7624.121203,-1184.329507,-2451.505594
1370.844404,-8290.306550,-962.267725,-3294.210641
1370.844730,-11843.295072,1258.350101,1072.533697
1370.845056,-10807.006753,1628.453072,2451.505594
1370.845381,-7846.182985,-222.061783,-1991.848295
1370.845707,-7624.121203,-1480.411884,919.314598
1370.846032,-10584.944971,518.144159,3753.867940
1370.846358,-10362.883188,222.061783,-383.047749
1370.846683,-7328.038826,-740.205942,-4903.011187
1370.847009,-9696.697840,0.000000,-1915.238745
1370.847334,-11621.233289,2368.659014,4903.011187
1370.847660,-9326.594869,444.123565,842.705048
1370.847985,-7031.956449,-1110.308913,-2374.896044
1370.848311,-9622.677246,-1184.329507,1072.533697
1370.848636,-11103.089130,1184.329507,2221.676944
1370.848962,-8438.347739,1110.308913,-2374.896044
1370.849287,-7031.956449,-222.061783,-3064.381992
1370.849613,-10658.965565,740.205942,1915.238745
1370.849938,-11547.212695,2220.617826,5362.668486
1370.850264,-7476.080014,814.226536,-306.438199
1370.850589,-6661.853478,-962.267725,-1915.238745
1370.850915,-10584.944971,-296.082377,2451.505594
1370.851240,-11621.233289,740.205942,1608.800546
1370.851566,-7772.162391,-518.144159,-1991.848295
1370.851892,-7772.162391,-592.164754,-2221.676944
1370.852217,-11103.089130,1258.350101,3217.601092
1370.852543,-10436.903782,1554.432478,2374.896044
1370.852868,-7105.977043,-296.082377,-4290.134789
1370.853194,-7846.182985,-1406.391290,-2911.162892
1370.853519,-11695.253884,0.000000,1991.848295
1370.853845,-11547.212695,296.082377,766.095498
1370.854170,-6809.894666,-444.123565,-1685.410096
1370.854496,-8438.347739,1036.288319,1072.533697
1370.854821,-11991.336260,2738.761985,4903.011187
1370.855147,-10214.842000,1776.494261,0.000000
1370.855472,-8216.285956,-1258.350101,-4979.620737
1370.855798,-9770.718434,-1258.350101,76.609550
1370.856123,-11621.233289,1110.308913,3524.039291
1370.856449,-9622.677246,888.247130,842.705048
1370.856774,-6513.812290,-666.185348,-1838.629195
1370.857100,-9474.636058,1110.308913,919.314598
1370.857425,-11843.295072,2294.638420,1915.238745
1370.857751,-9030.512492,-518.144159,-4596.572988
1370.858076,-7846.182985,-2442.679609,-4290.134789
1370.858402,-10140.821405,-370.102971,2681.334243
1370.858728,-10140.821405,1036.288319,5286.058936
1370.859053,-6957.935855,0.000000,-689.485948
1370.859379,-7179.997637,-592.164754,-2604.724693
1370.859704,-11325.150913,666.185348,1302.362347
1370.860030,-11029.068536,2146.597232,842.705048
1370.860355,-7772.162391,-666.185348,-3600.648841
1370.860681,-8068.244768,-1110.308913,-76.609550
1370.861006,-10658.965565,444.123565,5745.716235
1370.861332,-9474.636058,518.144159,2757.943793
1370.861657,-6439.791695,-962.267725,-3983.696590
1370.861983,-9844.739029,-666.185348,-3140.991542
1370.862308,-13397.727550,1628.453072,1608.800546
1370.862634,-9030.512492,148.041188,-459.657299
1370.862959,-6217.729913,-1702.473667,-2451.505594
1370.863285,-9696.697840,-1628.453072,2221.676944
1370.863610,-11547.212695,0.000000,4979.620737
1370.863936,-9474.636058,370.102971,-1072.533697
1370.864261,-6587.832884,-740.205942,-3677.258390
1370.864587,-10881.027347,666.185348,0.000000
1370.864912,-12213.398043,1924.535449,3447.429741
1370.865238,-7105.977043,370.102971,-689.485948
1370.865563,-6883.915261,-1258.350101,-536.266849
1370.865889,-11177.109724,0.000000,3600.648841
1370.866214,-11769.274478,814.226536,2681.334243
1370.866540,-7550.100608,-518.144159,-3140.991542
1370.866865,-7550.100608,-666.185348,-4290.134789
1370.867191,-11103.089130,962.267725,2681.334243
1370.867516,-10807.006753,1184.329507,2528.115143
1370.867842,-7402.059420,-444.123565,-2681.334243
1370.868167,-8290.306550,-1554.432478,-766.095498
1370.868493,-11029.068536,444.123565,2451.505594
1370.868818,-10807.006753,370.102971,0.000000
1370.869144,-6809.894666,-296.082377,-3983.696590
1370.869469,-8586.388927,148.041188,-612.876398
1370.869795,-11843.295072,1702.473667,5056.230287
1370.870120,-9844.739029,1406.391290,1762.019645
1370.870446,-7698.141797,-1036.288319,-2681.334243
1370.870771,-9622.677246,-814.226536,306.438199
1370.871097,-11621.233289,888.247130,2451.505594
1370.871422,-8956.491898,222.061783,-919.314598
1370.871748,-6809.894666,-1184.329507,-4060.306139
1370.872073,-9992.780217,0.000000,1225.752797
1370.872399,-11769.274478,1776.494261,3677.258390
1370.872725,-8142.265362,74.020594,-2298.286494
1370.873050,-7328.038826,-1406.391290,-3983.696590
1370.873376,-10510.924376,-370.102971,842.705048
1370.873701,-11177.109724,1036.288319,1762.019645
1370.874027,-7772.162391,0.000000,-1915.238745
1370.874352,-7328.038826,-814.226536,-1991.848295
1370.874678,-11177.109724,888.247130,3907.087040
1370.875003,-11547.212695,2368.659014,3294.210641
1370.875329,-7846.182985,0.000000,-2604.724693
1370.875654,-8438.347739,-962.267725,-383.047749
1370.875980,-11769.274478,888.247130,3064.381992
1370.876305,-10658.965565,888.247130,1608.800546
1370.876631,-6587.832884,-1110.308913,-2451.505594
1370.876956,-8586.388927,-370.102971,-153.219100
1370.877282,-12287.418637,1776.494261,4443.353888
1370.877607,-10066.800811,1332.370696,229.828649
1370.877933,-7846.182985,-370.102971,-3830.477490
1370.878258,-9474.636058,-814.226536,-229.828649
1370.878584,-11177.109724,1554.432478,2757.943793
1370.878909,-9474.636058,0.000000,-306.438199
1370.879235,-6439.791695,-1554.432478,-2451.505594
1370.879560,-9918.759623,148.041188,2068.457845
1370.879886,-12287.418637,2368.659014,4979.620737
1370.880211,-8142.265362,1110.308913,-1608.800546
1370.880537,-7328.038826,-962.267725,-3064.381992
1370.880862,-10881.027347,0.000000,1225.752797
1370.881188,-11251.130318,740.205942,2374.896044
1370.881513,-7476.080014,0.000000,-3064.381992
1370.881839,-6143.709319,-1554.432478,-2681.334243
1370.882164,-10140.821405,962.267725,1991.848295
1370.882490,-10584.944971,1480.411884,1762.019645
1370.882815,-7698.141797,74.020594,-4749.792088
1370.883141,-8438.347739,-1406.391290,-3370.820191
1370.883466,-11547.212695,-148.041188,2374.896044
1370.883792,-10140.821405,-148.041188,1225.752797
1370.884117,-6439.791695,-740.205942,-2374.896044
1370.884443,-8068.244768,-370.102971,459.657299
1370.884768,-11843.295072,1924.535449,4596.572988
1370.885094,-10214.842000,1406.391290,1762.019645
1370.885419,-8216.285956,-740.205942,-3753.867940
1370.885745,-9474.636058,-1036.288319,842.705048
1370.886070,-11843.295072,888.247130,4443.353888
1370.886396,-9548.656652,370.102971,306.438199
1370.886721,-6513.812290,-1406.391290,-2298.286494
1370.887047,-9770.718434,-444.123565,995.924147
1370.887372,-11843.295072,1406.391290,3830.477490
1370.887698,-8882.471304,74.020594,-1378.971896
1370.888023,-8068.244768,-1776.494261,-3294.210641
1370.888349,-10658.965565,-518.144159,2451.505594
1370.888674,-11325.150913,962.267725,3140.991542
1370.889000,-7179.997637,-444.123565,-2298.286494
1370.889325,-7105.977043,-1184.329507,-2528.115143
1370.889651,-10732.986159,592.164754,2681.334243
1370.889976,-11177.109724,1924.535449,3064.381992
1370.890302,-7550.100608,148.041188,-2451.505594
1370.890627,-7920.203579,-518.144159,-2145.067394
1370.890953,-11695.253884,0.000000,3600.648841
1370.891278,-10584.944971,888.247130,689.485948
1370.891604,-7031.956449,-962.267725,-4136.915689
1370.891929,-8142.265362,-666.185348,-1685.410096
1370.892255,-11251.130318,1702.473667,3064.381992
1370.892580,-9474.636058,1998.556043,842.705048
1370.892906,-7031.956449,-370.102971,-5286.058936
1370.893231,-9474.636058,-592.164754,-1915.238745
1370.893557,-11917.315666,1110.308913,2451.505594
1370.893882,-9770.718434,296.082377,-1225.752797
1370.894208,-6143.709319,-444.123565,-2987.772442
1370.894534,-9104.533087,444.123565,1608.800546
1370.894859,-11917.315666,3182.885551,4903.011187
1370.895185,-8586.388927,1480.411884,0.000000
1370.895510,-7772.162391,-1332.370696,-3983.696590
1370.895836,-11399.171507,-296.082377,1838.629195
1370.896161,-12509.480420,1702.473667,3140.991542
1370.896487,-8142.265362,0.000000,-1072.533697
1370.896812,-6513.812290,-814.226536,-229.828649
1370.897138,-10732.986159,1036.288319,3830.477490
1370.897463,-11177.109724,2294.638420,3753.867940
1370.897789,-7920.203579,-148.041188,-4060.306139
1370.898114,-9030.512492,-1702.473667,-3677.258390
1370.898440,-11769.274478,-518.144159,3140.991542
1370.898765,-10510.924376,1036.288319,1532.190996
1370.899091,-6291.750507,0.000000,-2451.505594
1370.899416,-7179.997637,-370.102971,459.657299
1370.899742,-11325.150913,1184.329507,4290.134789
1370.900067,-10658.965565,1258.350101,536.266849
1370.900393,-7994.224174,-1554.432478,-4519.963438
1370.900718,-10436.903782,-1776.494261,229.828649
1370.901044,-11991.336260,370.102971,5056.230287
1370.901369,-8586.388927,1036.288319,1302.362347
1370.901695,-5995.668130,-148.041188,-3217.601092
1370.902020,-9326.594869,-518.144159,-383.047749
1370.902346,-11991.336260,518.144159,1455.581446
1370.902671,-8660.409521,-370.102971,-2911.162892
1370.902997,-7550.100608,-1480.411884,-4903.011187
1370.903322,-10881.027347,-518.144159,1608.800546
1370.903648,-10732.986159,1036.288319,3677.258390
1370.903973,-7698.141797,148.041188,-2145.067394
1370.904299,-6883.915261,-1702.473667,-3677.258390
1370.904624,-10807.006753,-518.144159,1532.190996
1370.904950,-11917.315666,1332.370696,3524.039291
1370.905275,-8216.285956,0.000000,-766.095498
1370.905601,-7476.080014,-1406.391290,-459.657299
1370.905926,-11029.068536,0.000000,3830.477490
1370.906252,-10732.986159,1258.350101,1072.533697
1370.906577,-7402.059420,-518.144159,-4290.134789
1370.906903,-8216.285956,-962.267725,-2451.505594
1370.907228,-11029.068536,888.247130,4443.353888
1370.907554,-9992.780217,740.205942,2987.772442
1370.907879,-6957.935855,-888.247130,-2528.115143
1370.908205,-9252.574275,-1480.411884,-689.485948
1370.908530,-11917.315666,592.164754,2757.943793
1370.908856,-10214.842000,148.041188,-766.095498
1370.909181,-6957.935855,-1332.370696,-3907.087040
1370.909507,-8882.471304,-296.082377,1072.533697
1370.909832,-11177.109724,2220.617826,5515.887586
1370.910158,-8808.450710,1924.535449,459.657299
1370.910483,-7698.141797,-962.267725,-3600.648841
1370.910809,-11103.089130,0.000000,153.219100
1370.911134,-12583.501014,1406.391290,1532.190996
1370.911460,-8216.285956,74.020594,-2451.505594
1370.911785,-6143.709319,-1406.391290,-2911.162892
1370.912111,-10066.800811,0.000000,3830.477490
1370.912436,-11621.233289,2146.597232,3907.087040
1370.912762,-8438.347739,740.205942,-3600.648841
1370.913087,-7994.224174,-1480.411884,-5056.230287
1370.913413,-11621.233289,444.123565,229.828649
1370.913738,-11029.068536,1036.288319,1532.190996
1370.914064,-6439.791695,-296.082377,-3064.381992
1370.914389,-7402.059420,-814.226536,-306.438199
1370.914715,-11473.192101,1184.329507,5439.278036
1370.915040,-10436.903782,2516.700203,2145.067394
1370.915366,-7254.018232,148.041188,-4596.572988
1370.915692,-9622.677246,-962.267725,-2068.457845
1370.916017,-11843.295072,740.205942,3830.477490
1370.916343,-9252.574275,444.123565,1455.581446
1370.916668,-5773.606348,-1258.350101,-2068.457845
1370.916994,-8068.244768,-296.082377,1762.019645
1370.917319,-12065.356855,2442.679609,5209.449386
1370.917645,-9844.739029,1110.308913,-1302.362347
1370.917970,-7254.018232,-888.247130,-6052.154434
1370.918296,-10658.965565,74.020594,-766.095498
1370.918621,-11547.212695,1480.411884,3140.991542
1370.918947,-7254.018232,592.164754,-1149.143247
1370.919272,-5921.647536,-740.205942,-2221.676944
1370.919598,-11251.130318,888.247130,2451.505594
1370.919923,-13175.665768,2368.659014,3677.258390
1370.920249,-8808.450710,814.226536,-2681.334243
1370.920574,-7920.203579,-222.061783,-2757.943793
1370.920900,-11473.192101,518.144159,3753.867940
1370.921225,-10732.986159,1406.391290,3294.210641
1370.921551,-6143.709319,-592.164754,-3677.258390
1370.921876,-7698.141797,-814.226536,-2834.553343
1370.922202,-11843.295072,962.267725,2145.067394
1370.922527,-10288.862594,1924.535449,919.314598
1370.922853,-7698.141797,74.020594,-4673.182538
1370.923178,-8438.347739,-1184.329507,-2221.676944
1370.923504,-11325.150913,0.000000,3370.820191
1370.923829,-9474.636058,-592.164754,536.266849
1370.924155,-6217.729913,-1554.432478,-3447.429741
1370.924480,-9326.594869,-666.185348,842.705048
1370.924806,-11991.336260,1480.411884,4903.011187
1370.925131,-9474.636058,1406.391290,1072.533697
1370.925457,-7550.100608,-962.267725,-3140.991542
1370.925782,-11103.089130,-1184.329507,689.485948
1370.926108,-11547.212695,0.000000,3830.477490
1370.926433,-8512.368333,-592.164754,-842.705048
1370.926759,-7105.977043,-2072.576638,-1532.190996
1370.927084,-9918.759623,-518.144159,2298.286494
1370.927410,-11399.171507,1480.411884,4519.963438
1370.927735,-8660.409521,0.000000,-2451.505594
