#time,accel_x,accel_y,accel_z
1372.298587,-9474.636058,296.082377,76.609550
1372.298912,-9326.594869,222.061783,536.266849
1372.299238,-9696.697840,222.061783,153.219100
1372.299563,-9474.636058,296.082377,229.828649
1372.299889,-9400.615463,296.082377,0.000000
1372.300214,-9326.594869,0.000000,612.876398
1372.300540,-9474.636058,74.020594,153.219100
1372.300866,-9474.636058,222.061783,76.609550
1372.301191,-9400.615463,0.000000,153.219100
1372.301517,-9400.615463,296.082377,76.609550
1372.301842,-9474.636058,148.041188,383.047749
1372.302168,-9400.615463,0.000000,0.000000
1372.302493,-9474.636058,148.041188,229.828649
1372.302819,-9400.615463,370.102971,0.000000
1372.303145,-9474.636058,370.102971,0.000000
1372.303470,-9252.574275,148.041188,0.000000
1372.303796,-9474.636058,0.000000,229.828649
1372.304121,-9400.615463,148.041188,0.000000
1372.304447,-9252.574275,74.020594,0.000000
1372.304772,-9326.594869,0.000000,-229.828649
1372.305098,-9326.594869,0.000000,76.609550
1372.305423,-9548.656652,0.000000,153.219100
1372.305749,-9474.636058,74.020594,306.438199
1372.306075,-9548.656652,296.082377,459.657299
1372.306400,-9696.697840,148.041188,153.219100
1372.306726,-9474.636058,74.020594,0.000000
1372.307051,-9400.615463,296.082377,0.000000
1372.307377,-9770.718434,296.082377,536.266849
1372.307702,-9400.615463,148.041188,153.219100
1372.308028,-9474.636058,0.000000,229.828649
1372.308354,-9400.615463,148.041188,0.000000
1372.308679,-9326.594869,74.020594,153.219100
1372.309005,-9104.533087,0.000000,0.000000
1372.309330,-9326.594869,74.020594,76.609550
1372.309656,-9474.636058,0.000000,229.828649
1372.309981,-9474.636058,74.020594,76.609550
1372.310307,-9474.636058,222.061783,612.876398
1372.310632,-9548.656652,74.020594,153.219100
1372.310958,-9548.656652,370.102971,0.000000
1372.311284,-9474.636058,74.020594,76.609550
1372.311609,-9474.636058,148.041188,153.219100
1372.311935,-9252.574275,74.020594,-383.047749
1372.312260,-9326.594869,0.000000,76.609550
1372.312586,-9474.636058,74.020594,229.828649
1372.312911,-9474.636058,296.082377,0.000000
1372.313237,-9400.615463,0.000000,153.219100
1372.313563,-9400.615463,222.061783,76.609550
1372.313888,-9548.656652,222.061783,0.000000
1372.314214,-9474.636058,222.061783,0.000000
1372.314539,-9844.739029,148.041188,459.657299
1372.314865,-9770.718434,148.041188,76.609550
1372.315190,-9400.615463,0.000000,76.609550
1372.315516,-9400.615463,0.000000,153.219100
1372.315842,-9400.615463,148.041188,0.000000
1372.316167,-9252.574275,0.000000,229.828649
1372.316493,-9474.636058,296.082377,-306.438199
1372.316818,-9474.636058,0.000000,-229.828649
1372.317144,-9252.574275,0.000000,0.000000
1372.317469,-9400.615463,0.000000,0.000000
1372.317795,-9474.636058,0.000000,0.000000
1372.318120,-9326.594869,296.082377,306.438199
1372.318446,-9474.636058,296.082377,76.609550
1372.318772,-9474.636058,370.102971,229.828649
1372.319097,-9326.594869,296.082377,76.609550
1372.319423,-9474.636058,370.102971,0.000000
1372.319748,-9474.636058,0.000000,536.266849
1372.320074,-9252.574275,0.000000,229.828649
1372.320399,-9326.594869,74.020594,0.000000
1372.320725,-9104.533087,0.000000,0.000000
1372.321051,-9178.553681,296.082377,0.000000
1372.321376,-9400.615463,74.020594,76.609550
1372.321702,-9400.615463,296.082377,536.266849
1372.322027,-9474.636058,444.123565,76.609550
1372.322353,-9400.615463,74.020594,0.000000
1372.322678,-9252.574275,0.000000,0.000000
1372.323004,-9918.759623,444.123565,229.828649
1372.323329,-9474.636058,222.061783,536.266849
1372.323655,-9400.615463,148.041188,153.219100
1372.323981,-9326.594869,0.000000,383.047749
1372.324306,-9252.574275,0.000000,306.438199
1372.324632,-9178.553681,0.000000,76.609550
1372.324957,-9474.636058,0.000000,76.609550
1372.325283,-9474.636058,74.020594,76.609550
1372.325608,-9474.636058,74.020594,-229.828649
1372.325934,-9622.677246,0.000000,536.266849
1372.326260,-9548.656652,0.000000,153.219100
1372.326585,-9474.636058,296.082377,0.000000
1372.326911,-9252.574275,0.000000,153.219100
1372.327236,-9326.594869,444.123565,536.266849
1372.327562,-9622.677246,74.020594,76.609550
1372.327887,-9252.574275,0.000000,0.000000
1372.328213,-9326.594869,74.020594,0.000000
1372.328539,-9400.615463,370.102971,0.000000
1372.328864,-9400.615463,148.041188,0.000000
1372.329190,-9696.697840,296.082377,-306.438199
1372.329515,-9622.677246,74.020594,0.000000
1372.329841,-9400.615463,222.061783,0.000000
1372.330166,-9400.615463,296.082377,766.095498
1372.330492,-9400.615463,0.000000,229.828649
1372.330817,-9252.574275,74.020594,459.657299
1372.331143,-9474.636058,74.020594,76.609550
1372.331469,-9326.594869,148.041188,-153.219100
1372.331794,-9474.636058,0.000000,0.000000
1372.332120,-9474.636058,296.082377,-153.219100
1372.332445,-9770.718434,148.041188,0.000000
1372.332771,-9400.615463,148.041188,0.000000
1372.333096,-9252.574275,0.000000,229.828649
1372.333422,-9400.615463,222.061783,0.000000
1372.333748,-9252.574275,222.061783,0.000000
1372.334073,-9326.594869,0.000000,229.828649
1372.334399,-9252.574275,-74.020594,459.657299
1372.334724,-9326.594869,296.082377,0.000000
1372.335050,-9178.553681,74.020594,153.219100
1372.335375,-9252.574275,0.000000,0.000000
1372.335701,-9400.615463,222.061783,229.828649
1372.336026,-9400.615463,222.061783,76.609550
1372.336352,-9474.636058,222.061783,153.219100
1372.336678,-9474.636058,0.000000,306.438199
1372.337003,-9474.636058,148.041188,0.000000
1372.337329,-9326.594869,222.061783,0.000000
1372.337654,-9326.594869,74.020594,153.219100
1372.337980,-9548.656652,0.000000,0.000000
1372.338305,-9548.656652,0.000000,0.000000
1372.338631,-9326.594869,74.020594,306.438199
1372.338957,-9474.636058,0.000000,229.828649
1372.339282,-9326.594869,-148.041188,153.219100
1372.339608,-9474.636058,222.061783,76.609550
1372.339933,-9474.636058,0.000000,383.047749
1372.340259,-9548.656652,74.020594,0.000000
1372.340584,-9252.574275,0.000000,153.219100
1372.340910,-9548.656652,0.000000,0.000000
1372.341236,-9474.636058,0.000000,0.000000
1372.341561,-9548.656652,0.000000,612.876398
1372.341887,-9548.656652,148.041188,229.828649
1372.342212,-9326.594869,0.000000,76.609550
1372.342538,-9474.636058,0.000000,76.609550
1372.342863,-9474.636058,222.061783,229.828649
1372.343189,-9474.636058,148.041188,-76.609550
1372.343514,-9178.553681,0.000000,0.000000
1372.343840,-9474.636058,0.000000,153.219100
1372.344166,-9474.636058,74.020594,0.000000
1372.344491,-9622.677246,296.082377,0.000000
1372.344817,-9474.636058,370.102971,0.000000
1372.345142,-9252.574275,296.082377,0.000000
1372.345468,-9696.697840,0.000000,0.000000
1372.345793,-9400.615463,0.000000,459.657299
1372.346119,-9474.636058,0.000000,76.609550
1372.346445,-9400.615463,0.000000,306.438199
1372.346770,-9326.594869,148.041188,153.219100
1372.347096,-9474.636058,222.061783,919.314598
1372.347421,-9252.574275,74.020594,76.609550
1372.347747,-9400.615463,148.041188,0.000000
1372.348072,-9474.636058,444.123565,0.000000
1372.348398,-9400.615463,444.123565,76.609550
1372.348723,-9400.615463,0.000000,76.609550
1372.349049,-9400.615463,0.000000,0.000000
1372.349375,-9252.574275,0.000000,0.000000
1372.349700,-9622.677246,0.000000,0.000000
1372.350026,-9474.636058,370.102971,0.000000
1372.350351,-9400.615463,148.041188,229.828649
1372.350677,-9474.636058,222.061783,153.219100
1372.351002,-9400.615463,0.000000,0.000000
1372.351328,-9474.636058,148.041188,766.095498
1372.351654,-9400.615463,0.000000,229.828649
1372.351979,-9696.697840,296.082377,0.000000
1372.352305,-9326.594869,-296.082377,383.047749
1372.352630,-9178.553681,0.000000,229.828649
1372.352956,-9474.636058,0.000000,306.438199
1372.353281,-9252.574275,74.020594,0.000000
1372.353607,-9326.594869,0.000000,76.609550
1372.353933,-9474.636058,0.000000,0.000000
1372.354258,-9474.636058,0.000000,-383.047749
1372.354584,-9622.677246,74.020594,-306.438199
1372.354909,-9474.636058,0.000000,229.828649
1372.355235,-9474.636058,148.041188,0.000000
1372.355560,-9252.574275,0.000000,229.828649
1372.355886,-9474.636058,296.082377,0.000000
1372.356211,-9178.553681,0.000000,459.657299
1372.356537,-9400.615463,148.041188,0.000000
1372.356863,-9400.615463,148.041188,0.000000
1372.357188,-9548.656652,222.061783,306.438199
1372.357514,-9474.636058,0.000000,306.438199
1372.357839,-9252.574275,74.020594,-306.438199
1372.358165,-9400.615463,296.082377,76.609550
1372.358490,-9400.615463,592.164754,229.828649
1372.358816,-9400.615463,148.041188,229.828649
1372.359142,-9400.615463,148.041188,153.219100
1372.359467,-9474.636058,222.061783,229.828649
1372.359793,-9178.553681,0.000000,153.219100
1372.360118,-9400.615463,0.000000,0.000000
1372.360444,-9326.594869,222.061783,76.609550
1372.360769,-9474.636058,0.000000,536.266849
1372.361095,-9548.656652,0.000000,76.609550
1372.361420,-9474.636058,222.061783,766.095498
1372.361746,-9548.656652,148.041188,153.219100
1372.362072,-9474.636058,222.061783,0.000000
1372.362397,-9474.636058,148.041188,76.609550
1372.362723,-9252.574275,222.061783,919.314598
1372.363048,-9400.615463,74.020594,0.000000
1372.363374,-9400.615463,370.102971,0.000000
1372.363699,-9400.615463,0.000000,459.657299
1372.364025,-9400.615463,148.041188,76.609550
1372.364351,-9474.636058,0.000000,306.438199
1372.364676,-9252.574275,148.041188,0.000000
1372.365002,-9622.677246,148.041188,0.000000
1372.365327,-9326.594869,296.082377,0.000000
1372.365653,-9770.718434,148.041188,306.438199
1372.365978,-9252.574275,0.000000,229.828649
1372.366304,-9474.636058,0.000000,0.000000
1372.366630,-9474.636058,148.041188,0.000000
1372.366955,-9400.615463,74.020594,153.219100
1372.367281,-9252.574275,0.000000,0.000000
1372.367606,-9178.553681,0.000000,153.219100
1372.367932,-9474.636058,370.102971,-383.047749
1372.368257,-9400.615463,148.041188,0.000000
1372.368583,-9918.759623,0.000000,153.219100
1372.368908,-9400.615463,74.020594,229.828649
1372.369234,-9400.615463,0.000000,229.828649
1372.369559,-9548.656652,0.000000,76.609550
1372.369885,-9252.574275,444.123565,229.828649
1372.370211,-9548.656652,74.020594,153.219100
1372.370536,-9400.615463,0.000000,229.828649
1372.370862,-9474.636058,148.041188,0.000000
1372.371187,-9548.656652,296.082377,0.000000
1372.371513,-9178.553681,0.000000,153.219100
1372.371838,-9474.636058,74.020594,76.609550
1372.372164,-9474.636058,148.041188,306.438199
1372.372489,-9252.574275,0.000000,306.438199
1372.372815,-8956.491898,296.082377,76.609550
1372.373140,-9474.636058,0.000000,153.219100
1372.373466,-9400.615463,0.000000,306.438199
1372.373791,-9548.656652,74.020594,0.000000
1372.374117,-9474.636058,370.102971,383.047749
1372.374442,-9548.656652,0.000000,0.000000
1372.374768,-9400.615463,0.000000,153.219100
1372.375094,-9252.574275,74.020594,76.609550
1372.375419,-9474.636058,74.020594,229.828649
1372.375745,-9104.533087,0.000000,306.438199
1372.376070,-9326.594869,222.061783,0.000000
1372.376396,-9326.594869,148.041188,0.000000
1372.376721,-9474.636058,74.020594,-76.609550
1372.377047,-9474.636058,222.061783,76.609550
1372.377372,-9474.636058,0.000000,229.828649
1372.377698,-9474.636058,148.041188,229.828649
1372.378023,-9400.615463,0.000000,0.000000
1372.378349,-9178.553681,370.102971,0.000000
1372.378674,-9474.636058,222.061783,76.609550
1372.379000,-9474.636058,0.000000,153.219100
1372.379325,-9252.574275,518.144159,0.000000
1372.379651,-9474.636058,222.061783,229.828649
1372.379977,-9474.636058,74.020594,76.609550
1372.380302,-9400.615463,518.144159,0.000000
1372.380628,-9326.594869,0.000000,153.219100
1372.380953,-9326.594869,0.000000,306.438199
1372.381279,-9178.553681,0.000000,0.000000
1372.381604,-9474.636058,148.041188,0.000000
1372.381930,-9326.594869,74.020594,383.047749
1372.382255,-9474.636058,0.000000,76.609550
1372.382581,-9400.615463,222.061783,229.828649
1372.382906,-9474.636058,74.020594,0.000000
1372.383232,-9400.615463,0.000000,153.219100
1372.383557,-9400.615463,0.000000,153.219100
1372.383883,-9474.636058,74.020594,76.609550
1372.384208,-9326.594869,0.000000,0.000000
1372.384534,-9474.636058,74.020594,153.219100
1372.384860,-9474.636058,296.082377,0.000000
1372.385185,-9474.636058,148.041188,0.000000
1372.385511,-9326.594869,-444.123565,76.609550
1372.385836,-9252.574275,74.020594,153.219100
1372.386162,-9548.656652,148.041188,0.000000
1372.386487,-9400.615463,0.000000,0.000000
1372.386813,-9474.636058,0.000000,153.219100
1372.387138,-9252.574275,148.041188,76.609550
1372.387464,-9400.615463,74.020594,0.000000
1372.387789,-9548.656652,-148.041188,0.000000
1372.388115,-9474.636058,74.020594,229.828649
1372.388440,-9178.553681,222.061783,76.609550
1372.388766,-9400.615463,148.041188,0.000000
1372.389091,-9400.615463,222.061783,229.828649
1372.389417,-9400.615463,296.082377,-612.876398
1372.389743,-9622.677246,148.041188,229.828649
1372.390068,-9474.636058,74.020594,153.219100
1372.390394,-9474.636058,0.000000,153.219100
1372.390719,-9474.636058,0.000000,536.266849
1372.391045,-9400.615463,0.000000,306.438199
1372.391370,-9030.512492,0.000000,383.047749
1372.391696,-9548.656652,0.000000,229.828649
1372.392021,-9548.656652,222.061783,229.828649
1372.392347,-9474.636058,296.082377,76.609550
1372.392672,-9474.636058,0.000000,0.000000
1372.392998,-9326.594869,0.000000,229.828649
1372.393323,-9400.615463,74.020594,229.828649
1372.393649,-9326.594869,148.041188,0.000000
1372.393974,-9474.636058,222.061783,-153.219100
1372.394300,-9474.636058,296.082377,76.609550
1372.394625,-9400.615463,148.041188,0.000000
1372.394951,-9474.636058,370.102971,0.000000
1372.395277,-9400.615463,148.041188,306.438199
1372.395602,-9474.636058,74.020594,0.000000
1372.395928,-9548.656652,74.020594,229.828649
1372.396253,-9474.636058,0.000000,229.828649
1372.396579,-9696.697840,74.020594,0.000000
1372.396904,-9548.656652,148.041188,459.657299
1372.397230,-9474.636058,148.041188,76.609550
1372.397555,-9474.636058,444.123565,0.000000
1372.397881,-9770.718434,74.020594,76.609550
1372.398206,-9622.677246,0.000000,0.000000
1372.398532,-9400.615463,74.020594,0.000000
1372.398857,-9474.636058,0.000000,0.000000
1372.399183,-9252.574275,0.000000,76.609550
1372.399508,-9178.553681,-148.041188,76.609550
1372.399834,-9178.553681,0.000000,0.000000
1372.400160,-9474.636058,0.000000,229.828649
1372.400485,-9622.677246,222.061783,-76.609550
1372.400811,-9548.656652,74.020594,0.000000
1372.401136,-9252.574275,0.000000,536.266849
1372.401462,-9400.615463,0.000000,0.000000
1372.401787,-9326.594869,148.041188,0.000000
1372.402113,-9400.615463,74.020594,0.000000
1372.402438,-9474.636058,296.082377,0.000000
1372.402764,-9474.636058,74.020594,0.000000
1372.403089,-9474.636058,0.000000,153.219100
1372.403415,-9474.636058,148.041188,0.000000
1372.403740,-9474.636058,0.000000,76.609550
1372.404066,-9030.512492,0.000000,0.000000
1372.404391,-9326.594869,222.061783,0.000000
1372.404717,-9104.533087,74.020594,0.000000
1372.405043,-9474.636058,222.061783,0.000000
1372.405368,-9474.636058,222.061783,-229.828649
1372.405694,-9474.636058,148.041188,0.000000
1372.406019,-9474.636058,148.041188,76.609550
1372.406345,-9474.636058,74.020594,229.828649
1372.406670,-9326.594869,222.061783,76.609550
1372.406996,-9252.574275,0.000000,0.000000
1372.407321,-9474.636058,74.020594,0.000000
1372.407647,-9622.677246,222.061783,0.000000
1372.407972,-9474.636058,0.000000,229.828649
1372.408298,-9252.574275,222.061783,0.000000
1372.408623,-9178.553681,74.020594,153.219100
1372.408949,-9400.615463,148.041188,0.000000
1372.409274,-9400.615463,148.041188,0.000000
1372.409600,-9918.759623,222.061783,-689.485948
1372.409926,-9400.615463,444.123565,0.000000
1372.410251,-9326.594869,222.061783,153.219100
1372.410577,-9178.553681,0.000000,153.219100
1372.410902,-9474.636058,0.000000,76.609550
1372.411228,-9252.574275,296.082377,229.828649
1372.411553,-9474.636058,222.061783,0.000000
1372.411879,-9252.574275,0.000000,383.047749
1372.412204,-9400.615463,74.020594,0.000000
1372.412530,-9104.533087,74.020594,0.000000
1372.412855,-9474.636058,74.020594,0.000000
1372.413181,-9252.574275,74.020594,76.609550
1372.413506,-9474.636058,222.061783,0.000000
1372.413832,-9178.553681,148.041188,76.609550
1372.414157,-9252.574275,74.020594,76.609550
1372.414483,-9474.636058,148.041188,76.609550
1372.414809,-9400.615463,0.000000,306.438199
1372.415134,-9548.656652,0.000000,229.828649
1372.415460,-9326.594869,222.061783,459.657299
1372.415785,-9474.636058,74.020594,459.657299
1372.416111,-9252.574275,0.000000,153.219100
1372.416436,-9400.615463,222.061783,-306.438199
1372.416762,-9252.574275,222.061783,0.000000
1372.417087,-9622.677246,148.041188,0.000000
1372.417413,-9474.636058,0.000000,229.828649
1372.417738,-9400.615463,74.020594,0.000000
1372.418064,-9252.574275,74.020594,0.000000
1372.418389,-9178.553681,0.000000,0.000000
1372.418715,-9178.553681,0.000000,76.609550
1372.419040,-9400.615463,0.000000,0.000000
1372.419366,-9252.574275,0.000000,306.438199
1372.419691,-9252.574275,148.041188,0.000000
1372.420017,-9474.636058,0.000000,76.609550
1372.420343,-9696.697840,74.020594,0.000000
1372.420668,-9696.697840,0.000000,0.000000
1372.420994,-9844.739029,74.020594,-153.219100
1372.421319,-9474.636058,0.000000,76.609550
1372.421645,-9474.636058,0.000000,0.000000
1372.421970,-9178.553681,74.020594,76.609550
1372.422296,-9474.636058,296.082377,0.000000
1372.422621,-9252.574275,148.041188,153.219100
1372.422947,-9474.636058,148.041188,0.000000
1372.423272,-9252.574275,222.061783,0.000000
1372.423598,-9178.553681,74.020594,229.828649
1372.423923,-9326.594869,222.061783,76.609550
1372.424249,-9474.636058,74.020594,0.000000
1372.424574,-9474.636058,148.041188,153.219100
1372.424900,-9400.615463,222.061783,153.219100
1372.425226,-9178.553681,222.061783,-689.485948
1372.425551,-9326.594869,444.123565,0.000000
1372.425877,-9474.636058,148.041188,-153.219100
1372.426202,-9474.636058,296.082377,-229.828649
1372.426528,-9178.553681,74.020594,76.609550
1372.426853,-9474.636058,370.102971,229.828649
1372.427179,-9400.615463,74.020594,229.828649
1372.427504,-9474.636058,444.123565,229.828649
1372.427830,-9474.636058,0.000000,0.000000
1372.428155,-9104.533087,518.144159,0.000000
1372.428481,-9400.615463,0.000000,0.000000
1372.428806,-9400.615463,74.020594,0.000000
1372.429132,-9548.656652,0.000000,153.219100
1372.429457,-9474.636058,148.041188,153.219100
1372.429783,-9474.636058,148.041188,0.000000
1372.430109,-9178.553681,148.041188,0.000000
1372.430434,-9326.594869,444.123565,0.000000
1372.430760,-9770.718434,74.020594,0.000000
1372.431085,-8956.491898,296.082377,0.000000
1372.431411,-9326.594869,0.000000,536.266849
1372.431736,-9326.594869,0.000000,0.000000
1372.432062,-9104.533087,0.000000,0.000000
1372.432387,-9474.636058,222.061783,-612.876398
1372.432713,-9474.636058,0.000000,306.438199
1372.433038,-9474.636058,74.020594,229.828649
1372.433364,-9474.636058,0.000000,306.438199
1372.433689,-9474.636058,74.020594,459.657299
1372.434015,-9696.697840,-74.020594,0.000000
1372.434340,-9474.636058,296.082377,229.828649
1372.434666,-9548.656652,74.020594,76.609550
1372.434992,-9400.615463,0.000000,0.000000
1372.435317,-9104.533087,222.061783,0.000000
1372.435643,-9252.574275,74.020594,-229.828649
1372.435968,-9474.636058,296.082377,0.000000
1372.436294,-9770.718434,296.082377,0.000000
1372.436619,-9474.636058,444.123565,-766.095498
1372.436945,-9400.615463,296.082377,0.000000
1372.437270,-9474.636058,74.020594,0.000000
1372.437596,-9326.594869,148.041188,0.000000
1372.437921,-9474.636058,148.041188,76.609550
1372.438247,-9252.574275,0.000000,0.000000
1372.438572,-9474.636058,148.041188,76.609550
1372.438898,-9474.636058,74.020594,0.000000
1372.439223,-9104.533087,148.041188,76.609550
1372.439549,-9252.574275,370.102971,0.000000
1372.439875,-9252.574275,296.082377,153.219100
1372.440200,-9326.594869,148.041188,0.000000
1372.440526,-9400.615463,148.041188,-76.609550
1372.440851,-8956.491898,0.000000,153.219100
1372.441177,-9400.615463,148.041188,153.219100
1372.441502,-9474.636058,222.061783,0.000000
1372.441828,-9622.677246,222.061783,-76.609550
1372.442153,-9474.636058,0.000000,306.438199
1372.442479,-9178.553681,222.061783,229.828649
1372.442804,-9474.636058,0.000000,0.000000
1372.443130,-9474.636058,148.041188,0.000000
1372.443455,-9252.574275,74.020594,0.000000
1372.443781,-9030.512492,74.020594,0.000000
1372.444106,-9474.636058,74.020594,76.609550
1372.444432,-9326.594869,74.020594,229.828649
1372.444757,-9252.574275,222.061783,0.000000
1372.445083,-9252.574275,296.082377,-689.485948
1372.445409,-9400.615463,0.000000,0.000000
1372.445734,-9400.615463,74.020594,229.828649
1372.446060,-9400.615463,0.000000,306.438199
1372.446385,-9548.656652,74.020594,76.609550
1372.446711,-9030.512492,370.102971,-229.828649
1372.447036,-9474.636058,74.020594,76.609550
1372.447362,-9548.656652,74.020594,229.828649
1372.447687,-9474.636058,222.061783,0.000000
1372.448013,-8882.471304,222.061783,-383.047749
1372.448338,-9400.615463,74.020594,0.000000
1372.448664,-9548.656652,0.000000,76.609550
1372.448989,-9622.677246,74.020594,0.000000
1372.449315,-9474.636058,0.000000,153.219100
1372.449640,-9474.636058,0.000000,0.000000
1372.449966,-9400.615463,0.000000,153.219100
1372.450292,-9474.636058,148.041188,153.219100
1372.450617,-9622.677246,0.000000,306.438199
1372.450943,-9326.594869,148.041188,0.000000
1372.451268,-9326.594869,148.041188,0.000000
1372.451594,-9622.677246,222.061783,0.000000
1372.451919,-9400.615463,222.061783,-229.828649
1372.452245,-9326.594869,222.061783,0.000000
1372.452570,-9252.574275,148.041188,0.000000
1372.452896,-9474.636058,74.020594,0.000000
1372.453221,-9326.594869,0.000000,229.828649
1372.453547,-9400.615463,74.020594,0.000000
1372.453872,-9622.677246,370.102971,-153.219100
1372.454198,-9474.636058,0.000000,229.828649
1372.454523,-9474.636058,74.020594,0.000000
1372.454849,-9474.636058,222.061783,76.609550
1372.455175,-9326.594869,148.041188,76.609550
1372.455500,-9326.594869,296.082377,153.219100
1372.455826,-9030.512492,296.082377,0.000000
1372.456151,-9400.615463,148.041188,0.000000
1372.456477,-9104.533087,148.041188,306.438199
1372.456802,-9474.636058,222.061783,306.438199
1372.457128,-9474.636058,74.020594,306.438199
1372.457453,-9474.636058,370.102971,306.438199
1372.457779,-9400.615463,296.082377,76.609550
1372.458104,-9178.553681,222.061783,0.000000
1372.458430,-9400.615463,148.041188,76.609550
1372.458755,-9474.636058,74.020594,459.657299
1372.459081,-9548.656652,0.000000,306.438199
1372.459406,-9178.553681,222.061783,-383.047749
1372.459732,-9474.636058,0.000000,-153.219100
1372.460058,-9622.677246,74.020594,0.000000
1372.460383,-9400.615463,222.061783,-76.609550
1372.460709,-9474.636058,296.082377,0.000000
1372.461034,-9474.636058,74.020594,76.609550
1372.461360,-9400.615463,0.000000,383.047749
1372.461685,-9548.656652,0.000000,229.828649
1372.462011,-8956.491898,0.000000,229.828649
1372.462336,-8808.450710,222.061783,76.609550
1372.462662,-9474.636058,222.061783,0.000000
1372.462987,-9474.636058,0.000000,153.219100
1372.463313,-9474.636058,222.061783,383.047749
1372.463638,-9400.615463,444.123565,-612.876398
1372.463964,-9400.615463,296.082377,0.000000
1372.464289,-9400.615463,222.061783,0.000000
1372.464615,-9252.574275,0.000000,229.828649
1372.464941,-9622.677246,0.000000,612.876398
1372.465266,-9474.636058,74.020594,76.609550
1372.465592,-9400.615463,148.041188,0.000000
1372.465917,-9474.636058,222.061783,229.828649
1372.466243,-9400.615463,0.000000,0.000000
1372.466568,-9104.533087,74.020594,229.828649
1372.466894,-9474.636058,148.041188,0.000000
1372.467219,-9400.615463,74.020594,-153.219100
1372.467545,-9400.615463,-148.041188,153.219100
1372.467870,-9474.636058,370.102971,229.828649
1372.468196,-9400.615463,222.061783,153.219100
1372.468521,-9400.615463,0.000000,306.438199
1372.468847,-9252.574275,148.041188,0.000000
1372.469172,-9252.574275,148.041188,153.219100
1372.469498,-9326.594869,296.082377,0.000000
1372.469823,-9178.553681,148.041188,-76.609550
1372.470149,-9400.615463,222.061783,153.219100
1372.470475,-9326.594869,296.082377,76.609550
1372.470800,-9548.656652,222.061783,-536.266849
1372.471126,-9400.615463,222.061783,229.828649
1372.471451,-9474.636058,0.000000,76.609550
1372.471777,-9474.636058,222.061783,229.828649
1372.472102,-9474.636058,518.144159,229.828649
1372.472428,-9548.656652,222.061783,0.000000
1372.472753,-9474.636058,74.020594,76.609550
1372.473079,-9252.574275,148.041188,0.000000
1372.473404,-9400.615463,74.020594,0.000000
1372.473730,-9326.594869,296.082377,-306.438199
1372.474055,-9474.636058,148.041188,0.000000
1372.474381,-9252.574275,0.000000,306.438199
1372.474706,-9326.594869,74.020594,76.609550
1372.475032,-9104.533087,148.041188,0.000000
1372.475357,-9326.594869,296.082377,0.000000
1372.475683,-9622.677246,222.061783,0.000000
1372.476008,-9400.615463,74.020594,0.000000
1372.476334,-9474.636058,74.020594,0.000000
1372.476659,-9326.594869,222.061783,229.828649
1372.476985,-9400.615463,222.061783,76.609550
1372.477310,-9326.594869,148.041188,0.000000
1372.477636,-9178.553681,0.000000,76.609550
1372.477961,-9400.615463,222.061783,229.828649
1372.478287,-9400.615463,0.000000,229.828649
1372.478612,-9474.636058,148.041188,0.000000
1372.478938,-9400.615463,74.020594,76.609550
1372.479263,-9400.615463,296.082377,0.000000
1372.479589,-9622.677246,0.000000,0.000000
1372.479915,-9474.636058,74.020594,0.000000
1372.480240,-9474.636058,148.041188,76.609550
1372.480566,-9622.677246,0.000000,689.485948
1372.480891,-9400.615463,74.020594,0.000000
1372.481217,-9474.636058,0.000000,229.828649
1372.481542,-9252.574275,-148.041188,0.000000
1372.481868,-9548.656652,222.061783,0.000000
1372.482193,-9252.574275,592.164754,0.000000
1372.482519,-9326.594869,148.041188,0.000000
1372.482844,-9474.636058,148.041188,0.000000
1372.483170,-9474.636058,148.041188,76.609550
1372.483495,-9400.615463,222.061783,229.828649
1372.483821,-9474.636058,0.000000,0.000000
1372.484146,-9474.636058,0.000000,306.438199
1372.484472,-9474.636058,0.000000,383.047749
1372.484797,-9474.636058,148.041188,0.000000
1372.485123,-9178.553681,222.061783,-229.828649
1372.485448,-9474.636058,0.000000,0.000000
1372.485774,-9474.636058,148.041188,0.000000
1372.486099,-9252.574275,148.041188,0.000000
1372.486425,-9178.553681,148.041188,229.828649
1372.486750,-9400.615463,370.102971,0.000000
1372.487076,-9474.636058,222.061783,0.000000
1372.487401,-9474.636058,148.041188,229.828649
1372.487727,-9474.636058,222.061783,536.266849
1372.488052,-9178.553681,0.000000,0.000000
1372.488378,-9400.615463,74.020594,-153.219100
1372.488704,-9326.594869,0.000000,306.438199
1372.489029,-9400.615463,296.082377,0.000000
1372.489355,-9474.636058,0.000000,0.000000
1372.489680,-9400.615463,74.020594,-306.438199
1372.490006,-9326.594869,0.000000,76.609550
1372.490331,-9400.615463,444.123565,0.000000
1372.490657,-9474.636058,0.000000,383.047749
1372.490982,-9400.615463,-148.041188,306.438199
1372.491308,-9474.636058,148.041188,306.438199
1372.491633,-9252.574275,0.000000,0.000000
1372.491959,-9474.636058,0.000000,612.876398
1372.492284,-9400.615463,222.061783,459.657299
1372.492610,-9326.594869,296.082377,0.000000
1372.492935,-9474.636058,296.082377,153.219100
1372.493261,-9326.594869,296.082377,153.219100
1372.493586,-9030.512492,-370.102971,153.219100
1372.493912,-9548.656652,0.000000,76.609550
1372.494237,-9474.636058,222.061783,229.828649
1372.494563,-9474.636058,0.000000,76.609550
1372.494888,-9548.656652,296.082377,229.828649
1372.495214,-9326.594869,0.000000,153.219100
1372.495539,-9326.594869,0.000000,76.609550
1372.495865,-9548.656652,0.000000,0.000000
1372.496190,-9474.636058,148.041188,0.000000
1372.496516,-9252.574275,0.000000,0.000000
1372.496841,-9326.594869,0.000000,306.438199
1372.497167,-9252.574275,0.000000,153.219100
1372.497492,-9400.615463,0.000000,229.828649
1372.497818,-9548.656652,222.061783,383.047749
1372.498144,-9474.636058,74.020594,229.828649
1372.498469,-9252.574275,0.000000,459.657299
1372.498795,-9474.636058,0.000000,0.000000
1372.499120,-8882.471304,74.020594,383.047749
1372.499446,-9474.636058,74.020594,76.609550
1372.499771,-9548.656652,148.041188,0.000000
1372.500097,-9622.677246,0.000000,76.609550
1372.500422,-9326.594869,222.061783,0.000000
1372.500748,-9548.656652,222.061783,229.828649
1372.501073,-9696.697840,74.020594,153.219100
1372.501399,-9326.594869,0.000000,306.438199
1372.501724,-9474.636058,74.020594,0.000000
1372.502050,-9474.636058,444.123565,0.000000
1372.502375,-9400.615463,370.102971,-229.828649
1372.502701,-9252.574275,296.082377,0.000000
1372.503026,-9696.697840,148.041188,-229.828649
1372.503352,-9474.636058,222.061783,-76.609550
1372.503677,-9400.615463,74.020594,153.219100
1372.504003,-9474.636058,370.102971,76.609550
1372.504328,-9474.636058,0.000000,229.828649
1372.504654,-9326.594869,222.061783,0.000000
1372.504979,-9474.636058,74.020594,306.438199
1372.505305,-9474.636058,0.000000,229.828649
1372.505630,-9178.553681,0.000000,306.438199
1372.505956,-9548.656652,148.041188,0.000000
1372.506281,-9178.553681,0.000000,536.266849
1372.506607,-9474.636058,222.061783,0.000000
1372.506932,-9400.615463,148.041188,76.609550
1372.507258,-9400.615463,222.061783,153.219100
1372.507584,-9252.574275,0.000000,689.485948
1372.507909,-9178.553681,148.041188,0.000000
1372.508235,-9474.636058,74.020594,-306.438199
1372.508560,-9474.636058,0.000000,0.000000
1372.508886,-9474.636058,0.000000,0.000000
1372.509211,-9400.615463,74.020594,229.828649
1372.509537,-9252.574275,0.000000,76.609550
1372.509862,-9400.615463,0.000000,0.000000
1372.510188,-9400.615463,0.000000,229.828649
1372.510513,-9252.574275,148.041188,-153.219100
1372.510839,-9548.656652,148.041188,383.047749
1372.511164,-9474.636058,0.000000,153.219100
1372.511490,-9474.636058,0.000000,76.609550
1372.511815,-9474.636058,0.000000,229.828649
1372.512141,-9400.615463,0.000000,76.609550
1372.512466,-9400.615463,0.000000,459.657299
1372.512792,-9474.636058,0.000000,229.828649
1372.513117,-9252.574275,74.020594,0.000000
1372.513443,-9252.574275,0.000000,0.000000
1372.513768,-9400.615463,148.041188,0.000000
1372.514094,-9400.615463,148.041188,153.219100
1372.514419,-9548.656652,222.061783,306.438199
1372.514745,-9696.697840,148.041188,383.047749
1372.515070,-9474.636058,0.000000,229.828649
1372.515396,-9326.594869,148.041188,0.000000
1372.515721,-9548.656652,222.061783,76.609550
1372.516047,-9326.594869,148.041188,76.609550
1372.516373,-9252.574275,74.020594,0.000000
1372.516698,-9474.636058,148.041188,0.000000
1372.517024,-9474.636058,74.020594,0.000000
1372.517349,-9400.615463,0.000000,153.219100
1372.517675,-9104.533087,222.061783,0.000000
1372.518000,-9326.594869,0.000000,229.828649
1372.518326,-9400.615463,296.082377,0.000000
1372.518651,-9474.636058,148.041188,0.000000
1372.518977,-9252.574275,0.000000,0.000000
1372.519302,-9474.636058,0.000000,0.000000
1372.519628,-9622.677246,296.082377,153.219100
1372.519953,-9474.636058,296.082377,229.828649
1372.520279,-9548.656652,222.061783,0.000000
1372.520604,-9252.574275,444.123565,0.000000
1372.520930,-9326.594869,148.041188,0.000000
1372.521255,-9326.594869,222.061783,0.000000
1372.521581,-9178.553681,222.061783,0.000000
1372.521906,-9326.594869,148.041188,153.219100
1372.522232,-9548.656652,0.000000,229.828649
1372.522557,-9474.636058,370.102971,76.609550
1372.522883,-9622.677246,0.000000,0.000000
1372.523208,-9326.594869,222.061783,383.047749
1372.523534,-9400.615463,296.082377,-153.219100
1372.523859,-9474.636058,148.041188,76.609550
1372.524185,-9548.656652,222.061783,306.438199
1372.524510,-9474.636058,0.000000,76.609550
1372.524836,-9400.615463,148.041188,0.000000
1372.525161,-9400.615463,0.000000,383.047749
1372.525487,-9474.636058,222.061783,76.609550
1372.525813,-9326.594869,296.082377,0.000000
1372.526138,-9548.656652,370.102971,0.000000
1372.526464,-9400.615463,0.000000,0.000000
1372.526789,-9400.615463,0.000000,-229.828649
1372.527115,-9474.636058,148.041188,0.000000
1372.527440,-9326.594869,0.000000,0.000000
1372.527766,-9622.677246,74.020594,76.609550
1372.528091,-9400.615463,148.041188,306.438199
1372.528417,-9474.636058,0.000000,383.047749
1372.528742,-9252.574275,0.000000,0.000000
1372.529068,-9178.553681,0.000000,459.657299
1372.529393,-9474.636058,148.041188,0.000000
1372.529719,-9252.574275,148.041188,0.000000
1372.530044,-9474.636058,148.041188,0.000000
1372.530370,-9326.594869,74.020594,-306.438199
1372.530695,-9548.656652,0.000000,229.828649
1372.531021,-9474.636058,370.102971,0.000000
1372.531346,-9474.636058,74.020594,459.657299
1372.531672,-9474.636058,148.041188,229.828649
1372.531997,-9400.615463,370.102971,229.828649
1372.532323,-9474.636058,0.000000,0.000000
1372.532648,-9548.656652,222.061783,0.000000
1372.532974,-9474.636058,0.000000,0.000000
1372.533299,-8882.471304,518.144159,-459.657299
1372.533625,-9474.636058,222.061783,76.609550
1372.533950,-9474.636058,74.020594,0.000000
1372.534276,-9400.615463,148.041188,0.000000
1372.534602,-9474.636058,518.144159,153.219100
1372.534927,-9178.553681,74.020594,76.609550
1372.535253,-9474.636058,370.102971,-76.609550
1372.535578,-9400.615463,0.000000,306.438199
1372.535904,-9400.615463,148.041188,-229.828649
1372.536229,-9400.615463,222.061783,0.000000
1372.536555,-9400.615463,148.041188,0.000000
1372.536880,-9474.636058,444.123565,229.828649
1372.537206,-9474.636058,0.000000,0.000000
1372.537531,-9104.533087,296.082377,229.828649
1372.537857,-9622.677246,74.020594,153.219100
1372.538182,-9474.636058,370.102971,76.609550
1372.538508,-9770.718434,148.041188,0.000000
1372.538833,-9474.636058,222.061783,153.219100
1372.539159,-9252.574275,0.000000,306.438199
1372.539484,-9178.553681,0.000000,153.219100
1372.539810,-9326.594869,74.020594,76.609550
1372.540135,-9326.594869,74.020594,76.609550
1372.540461,-9104.533087,296.082377,229.828649
1372.540786,-9400.615463,0.000000,0.000000
1372.541112,-9474.636058,222.061783,0.000000
1372.541437,-9548.656652,0.000000,383.047749
1372.541763,-9178.553681,296.082377,76.609550
1372.542088,-9474.636058,0.000000,229.828649
1372.542414,-9326.594869,0.000000,153.219100
1372.542739,-9474.636058,222.061783,-153.219100
1372.543065,-9400.615463,-296.082377,229.828649
1372.543390,-9400.615463,0.000000,0.000000
1372.543716,-9474.636058,148.041188,153.219100
1372.544042,-9622.677246,148.041188,153.219100
1372.544367,-9326.594869,0.000000,76.609550
1372.544693,-9252.574275,-148.041188,229.828649
1372.545018,-9178.553681,74.020594,76.609550
1372.545344,-9548.656652,0.000000,153.219100
1372.545669,-9326.594869,296.082377,0.000000
1372.545995,-9326.594869,518.144159,76.609550
1372.546320,-9400.615463,0.000000,0.000000
1372.546646,-9474.636058,296.082377,76.609550
1372.546971,-9474.636058,0.000000,76.609550
1372.547297,-9104.533087,0.000000,0.000000
1372.547622,-9400.615463,0.000000,0.000000
1372.547948,-9400.615463,148.041188,0.000000
1372.548273,-9474.636058,222.061783,0.000000
1372.548599,-9326.594869,0.000000,306.438199
1372.548924,-9474.636058,222.061783,0.000000
1372.549250,-9326.594869,148.041188,0.000000
1372.549575,-9474.636058,74.020594,76.609550
1372.549901,-9178.553681,148.041188,76.609550
1372.550226,-9326.594869,370.102971,76.609550
1372.550552,-9400.615463,0.000000,0.000000
1372.550877,-9474.636058,296.082377,0.000000
1372.551203,-9326.594869,222.061783,229.828649
1372.551528,-9252.574275,296.082377,76.609550
1372.551854,-9400.615463,222.061783,536.266849
1372.552179,-9400.615463,148.041188,306.438199
1372.552505,-9326.594869,148.041188,153.219100
1372.552830,-9548.656652,0.000000,0.000000
1372.553156,-9474.636058,370.102971,-153.219100
1372.553482,-9326.594869,74.020594,383.047749
1372.553807,-9252.574275,222.061783,76.609550
1372.554133,-9400.615463,74.020594,76.609550
1372.554458,-9548.656652,0.000000,-459.657299
1372.554784,-9548.656652,74.020594,76.609550
1372.555109,-9474.636058,0.000000,76.609550
1372.555435,-9326.594869,74.020594,76.609550
1372.555760,-9326.594869,0.000000,306.438199
1372.556086,-9400.615463,222.061783,0.000000
1372.556411,-9400.615463,0.000000,306.438199
1372.556737,-9474.636058,222.061783,0.000000
1372.557062,-9326.594869,0.000000,0.000000
1372.557388,-9326.594869,148.041188,-689.485948
1372.557713,-9474.636058,0.000000,0.000000
1372.558039,-9474.636058,0.000000,76.609550
1372.558364,-9622.677246,0.000000,383.047749
1372.558690,-9178.553681,0.000000,153.219100
1372.559015,-9252.574275,0.000000,76.609550
1372.559341,-9326.594869,370.102971,0.000000
1372.559666,-9400.615463,148.041188,76.609550
1372.559992,-9474.636058,222.061783,0.000000
1372.560317,-9326.594869,222.061783,229.828649
1372.560643,-9474.636058,222.061783,76.609550
1372.560968,-9474.636058,370.102971,76.609550
1372.561294,-9474.636058,296.082377,76.609550
1372.561619,-9548.656652,370.102971,0.000000
1372.561945,-9400.615463,148.041188,0.000000
1372.562271,-9474.636058,74.020594,0.000000
1372.562596,-9622.677246,74.020594,153.219100
1372.562922,-9104.533087,74.020594,0.000000
1372.563247,-9326.594869,0.000000,0.000000
1372.563573,-9104.533087,148.041188,0.000000
1372.563898,-9474.636058,74.020594,-153.219100
1372.564224,-9474.636058,222.061783,0.000000
1372.564549,-9104.533087,444.123565,0.000000
1372.564875,-9474.636058,370.102971,383.047749
1372.565200,-9548.656652,148.041188,229.828649
1372.565526,-9326.594869,296.082377,0.000000
1372.565851,-9252.574275,148.041188,536.266849
1372.566177,-9400.615463,296.082377,-229.828649
1372.566502,-9474.636058,0.000000,306.438199
1372.566828,-9474.636058,370.102971,153.219100
1372.567153,-9400.615463,148.041188,153.219100
1372.567479,-9474.636058,0.000000,383.047749
1372.567804,-9622.677246,74.020594,76.609550
1372.568130,-9252.574275,0.000000,0.000000
1372.568455,-9252.574275,296.082377,0.000000
1372.568781,-9326.594869,518.144159,536.266849
1372.569106,-9474.636058,222.061783,153.219100
1372.569432,-9030.512492,0.000000,153.219100
1372.569757,-9474.636058,296.082377,-76.609550
1372.570083,-9474.636058,-222.061783,153.219100
1372.570408,-9400.615463,0.000000,229.828649
1372.570734,-9400.615463,74.020594,229.828649
1372.571059,-9400.615463,0.000000,0.000000
1372.571385,-9400.615463,0.000000,306.438199
1372.571711,-9548.656652,0.000000,536.266849
1372.572036,-9474.636058,222.061783,0.000000
1372.572362,-9178.553681,74.020594,0.000000
1372.572687,-9400.615463,74.020594,76.609550
1372.573013,-9104.533087,592.164754,0.000000
1372.573338,-9400.615463,148.041188,383.047749
1372.573664,-9548.656652,74.020594,306.438199
1372.573989,-9474.636058,0.000000,459.657299
1372.574315,-9622.677246,148.041188,536.266849
1372.574640,-9622.677246,222.061783,76.609550
1372.574966,-9400.615463,222.061783,229.828649
1372.575291,-9400.615463,0.000000,153.219100
1372.575617,-9770.718434,370.102971,153.219100
1372.575942,-9474.636058,222.061783,459.657299
1372.576268,-9474.636058,0.000000,229.828649
1372.576593,-9696.697840,222.061783,0.000000
1372.576919,-9548.656652,222.061783,229.828649
1372.577244,-9252.574275,592.164754,153.219100
1372.577570,-9622.677246,0.000000,0.000000
1372.577895,-9400.615463,0.000000,0.000000
1372.578221,-9178.553681,148.041188,76.609550
1372.578546,-9400.615463,0.000000,306.438199
1372.578872,-9400.615463,222.061783,229.828649
1372.579197,-9400.615463,222.061783,0.000000
1372.579523,-9696.697840,148.041188,0.000000
1372.579848,-9474.636058,0.000000,0.000000
1372.580174,-9696.697840,814.226536,153.219100
1372.580499,-9474.636058,444.123565,76.609550
1372.580825,-9548.656652,74.020594,0.000000
1372.581150,-9474.636058,74.020594,229.828649
1372.581476,-9474.636058,740.205942,0.000000
1372.581801,-9474.636058,148.041188,0.000000
1372.582127,-9400.615463,148.041188,76.609550
1372.582453,-9252.574275,444.123565,0.000000
1372.582778,-9474.636058,222.061783,0.000000
1372.583104,-9474.636058,148.041188,0.000000
1372.583429,-9474.636058,148.041188,-153.219100
1372.583755,-9326.594869,148.041188,0.000000
1372.584080,-9252.574275,296.082377,-306.438199
1372.584406,-9252.574275,370.102971,153.219100
1372.584731,-9474.636058,222.061783,0.000000
1372.585057,-9400.615463,0.000000,153.219100
1372.585382,-9400.615463,0.000000,306.438199
1372.585708,-9474.636058,-370.102971,229.828649
1372.586033,-9400.615463,74.020594,0.000000
1372.586359,-9474.636058,0.000000,153.219100
1372.586684,-9326.594869,0.000000,76.609550
1372.587010,-9474.636058,0.000000,153.219100
1372.587335,-9474.636058,74.020594,76.609550
1372.587661,-9326.594869,222.061783,-459.657299
1372.587986,-9252.574275,0.000000,229.828649
1372.588312,-9474.636058,0.000000,76.609550
1372.588637,-9622.677246,0.000000,229.828649
1372.588963,-9400.615463,0.000000,76.609550
1372.589288,-9326.594869,74.020594,76.609550
1372.589614,-9474.636058,222.061783,229.828649
1372.589939,-9326.594869,0.000000,76.609550
1372.590265,-9400.615463,0.000000,0.000000
1372.590590,-9474.636058,148.041188,76.609550
1372.590916,-9400.615463,148.041188,76.609550
1372.591241,-9622.677246,74.020594,153.219100
1372.591567,-9252.574275,148.041188,0.000000
1372.591892,-9326.594869,74.020594,229.828649
1372.592218,-9474.636058,0.000000,76.609550
1372.592543,-9548.656652,370.102971,0.000000
1372.592869,-9474.636058,148.041188,383.047749
1372.593194,-9474.636058,74.020594,-229.828649
1372.593520,-9474.636058,444.123565,306.438199
1372.593846,-9548.656652,222.061783,0.000000
1372.594171,-9400.615463,148.041188,229.828649
1372.594497,-9474.636058,148.041188,0.000000
1372.594822,-9400.615463,148.041188,0.000000
1372.595148,-9400.615463,296.082377,76.609550
1372.595473,-9400.615463,74.020594,229.828649
1372.595799,-9326.594869,222.061783,153.219100
1372.596124,-9326.594869,222.061783,0.000000
1372.596450,-9326.594869,222.061783,0.000000
1372.596775,-9326.594869,222.061783,0.000000
1372.597101,-9252.574275,296.082377,0.000000
1372.597426,-9326.594869,0.000000,229.828649
1372.597752,-9252.574275,148.041188,0.000000
1372.598077,-9326.594869,0.000000,153.219100
1372.598403,-9474.636058,222.061783,383.047749
1372.598728,-9474.636058,0.000000,306.438199
1372.599054,-9548.656652,444.123565,-459.657299
1372.599379,-9474.636058,0.000000,306.438199
1372.599705,-9400.615463,222.061783,0.000000
1372.600030,-9178.553681,444.123565,459.657299
1372.600356,-9474.636058,74.020594,0.000000
1372.600681,-9474.636058,0.000000,153.219100
1372.601007,-9400.615463,222.061783,0.000000
1372.601332,-9474.636058,74.020594,459.657299
1372.601658,-9622.677246,222.061783,-153.219100
1372.601983,-9326.594869,74.020594,76.609550
1372.602309,-9252.574275,0.000000,153.219100
1372.602634,-9474.636058,296.082377,229.828649
1372.602960,-9474.636058,0.000000,459.657299
1372.603285,-9474.636058,74.020594,0.000000
1372.603611,-9474.636058,0.000000,0.000000
1372.603936,-9400.615463,222.061783,0.000000
1372.604262,-9178.553681,74.020594,229.828649
1372.604588,-9474.636058,296.082377,0.000000
1372.604913,-9474.636058,74.020594,153.219100
1372.605239,-9326.594869,148.041188,0.000000
1372.605564,-9474.636058,74.020594,76.609550
1372.605890,-9326.594869,74.020594,0.000000
1372.606215,-9474.636058,74.020594,76.609550
1372.606541,-9474.636058,222.061783,0.000000
1372.606866,-9326.594869,0.000000,306.438199
1372.607192,-9400.615463,296.082377,76.609550
1372.607517,-9178.553681,0.000000,383.047749
1372.607843,-9178.553681,0.000000,0.000000
1372.608168,-9400.615463,74.020594,0.000000
1372.608494,-9252.574275,0.000000,612.876398
1372.608819,-9474.636058,74.020594,306.438199
1372.609145,-9474.636058,148.041188,76.609550
1372.609470,-9178.553681,74.020594,229.828649
1372.609796,-9548.656652,444.123565,0.000000
1372.610121,-9474.636058,222.061783,0.000000
1372.610447,-9252.574275,0.000000,0.000000
1372.610772,-9474.636058,222.061783,229.828649
1372.611098,-9178.553681,148.041188,76.609550
1372.611423,-9474.636058,444.123565,383.047749
1372.611749,-9252.574275,0.000000,153.219100
1372.612074,-9400.615463,0.000000,229.828649
1372.612400,-9400.615463,296.082377,0.000000
1372.612725,-9474.636058,0.000000,459.657299
1372.613051,-9400.615463,444.123565,0.000000
1372.613376,-9622.677246,148.041188,0.000000
1372.613702,-9400.615463,148.041188,76.609550
1372.614027,-9326.594869,0.000000,306.438199
1372.614353,-9474.636058,74.020594,-76.609550
1372.614678,-9548.656652,148.041188,229.828649
1372.615004,-9400.615463,0.000000,76.609550
1372.615330,-9474.636058,0.000000,0.000000
1372.615655,-9770.718434,296.082377,612.876398
1372.615981,-9474.636058,0.000000,153.219100
1372.616306,-9548.656652,222.061783,0.000000
1372.616632,-9326.594869,222.061783,0.000000
1372.616957,-9326.594869,222.061783,612.876398
1372.617283,-9474.636058,0.000000,0.000000
1372.617608,-9474.636058,0.000000,383.047749
1372.617934,-9548.656652,0.000000,229.828649
1372.618259,-9326.594869,0.000000,76.609550
1372.618585,-9770.718434,0.000000,229.828649
1372.618910,-9474.636058,222.061783,153.219100
1372.619236,-9474.636058,0.000000,-153.219100
1372.619561,-9252.574275,148.041188,-306.438199
1372.619887,-9326.594869,0.000000,536.266849
1372.620212,-9400.615463,148.041188,76.609550
1372.620538,-9696.697840,148.041188,0.000000
1372.620863,-9104.533087,74.020594,0.000000
1372.621189,-9474.636058,296.082377,0.000000
1372.621514,-9400.615463,148.041188,153.219100
1372.621840,-9474.636058,0.000000,229.828649
1372.622165,-9474.636058,222.061783,0.000000
1372.622491,-9326.594869,148.041188,306.438199
1372.622816,-9548.656652,148.041188,0.000000
1372.623142,-9326.594869,296.082377,0.000000
1372.623467,-9474.636058,148.041188,0.000000
1372.623793,-9474.636058,148.041188,0.000000
1372.624118,-9474.636058,0.000000,459.657299
1372.624444,-9474.636058,0.000000,76.609550
1372.624769,-9400.615463,0.000000,76.609550
1372.625095,-9474.636058,222.061783,306.438199
1372.625420,-9326.594869,148.041188,383.047749
1372.625746,-9474.636058,222.061783,153.219100
1372.626072,-9400.615463,0.000000,0.000000
1372.626397,-9474.636058,74.020594,76.609550
1372.626723,-9474.636058,0.000000,0.000000
1372.627048,-9252.574275,74.020594,229.828649
1372.627374,-9178.553681,0.000000,153.219100
1372.627699,-9474.636058,74.020594,153.219100
1372.628025,-9474.636058,0.000000,229.828649
1372.628350,-9104.533087,444.123565,0.000000
1372.628676,-9474.636058,222.061783,0.000000
1372.629001,-9178.553681,74.020594,153.219100
1372.629327,-9474.636058,370.102971,0.000000
1372.629652,-9178.553681,74.020594,0.000000
1372.629978,-9252.574275,296.082377,0.000000
1372.630303,-9178.553681,0.000000,229.828649
1372.630629,-9252.574275,0.000000,0.000000
1372.630954,-9474.636058,148.041188,153.219100
1372.631280,-9622.677246,148.041188,383.047749
1372.631605,-9400.615463,222.061783,-383.047749
1372.631931,-9400.615463,74.020594,306.438199
1372.632256,-9400.615463,0.000000,0.000000
1372.632582,-9252.574275,0.000000,536.266849
1372.632907,-9474.636058,444.123565,-306.438199
1372.633233,-9400.615463,148.041188,0.000000
1372.633558,-9400.615463,0.000000,536.266849
1372.633884,-9474.636058,370.102971,76.609550
1372.634209,-9622.677246,518.144159,76.609550
1372.634535,-9326.594869,0.000000,153.219100
1372.634860,-9622.677246,0.000000,-153.219100
1372.635186,-9474.636058,74.020594,0.000000
1372.635511,-9474.636058,74.020594,76.609550
1372.635837,-9548.656652,0.000000,153.219100
1372.636162,-9252.574275,0.000000,153.219100
1372.636488,-9474.636058,0.000000,0.000000
1372.636814,-9622.677246,370.102971,0.000000
1372.637139,-9474.636058,0.000000,0.000000
1372.637465,-9030.512492,148.041188,0.000000
1372.637790,-9474.636058,0.000000,76.609550
1372.638116,-9400.615463,0.000000,76.609550
1372.638441,-9474.636058,0.000000,0.000000
1372.638767,-9474.636058,0.000000,153.219100
1372.639092,-9622.677246,74.020594,0.000000
1372.639418,-9548.656652,148.041188,153.219100
1372.639743,-9400.615463,74.020594,76.609550
1372.640069,-9400.615463,74.020594,76.609550
1372.640394,-9474.636058,296.082377,-153.219100
1372.640720,-9400.615463,148.041188,153.219100
1372.641045,-9252.574275,0.000000,0.000000
1372.641371,-9400.615463,0.000000,-153.219100
1372.641696,-9400.615463,222.061783,0.000000
1372.642022,-9474.636058,222.061783,76.609550
1372.642347,-9326.594869,222.061783,0.000000
1372.642673,-9474.636058,0.000000,-153.219100
1372.642998,-9400.615463,222.061783,229.828649
1372.643324,-9400.615463,296.082377,153.219100
1372.643649,-9400.615463,148.041188,0.000000
1372.643975,-9474.636058,74.020594,612.876398
1372.644300,-9474.636058,148.041188,229.828649
1372.644626,-9326.594869,444.123565,0.000000
1372.644951,-9622.677246,0.000000,76.609550
1372.645277,-9474.636058,74.020594,76.609550
1372.645602,-9252.574275,296.082377,0.000000
1372.645928,-9178.553681,222.061783,0.000000
1372.646253,-9326.594869,222.061783,0.000000
1372.646579,-9252.574275,222.061783,306.438199
1372.646904,-9252.574275,0.000000,0.000000
1372.647230,-9326.594869,296.082377,0.000000
1372.647556,-9326.594869,0.000000,229.828649
1372.647881,-9622.677246,0.000000,0.000000
1372.648207,-9400.615463,0.000000,-153.219100
1372.648532,-9548.656652,148.041188,76.609550
1372.648858,-9326.594869,148.041188,0.000000
1372.649183,-9400.615463,222.061783,76.609550
1372.649509,-9474.636058,0.000000,306.438199
1372.649834,-9104.533087,148.041188,459.657299
1372.650160,-9474.636058,74.020594,229.828649
1372.650485,-9474.636058,148.041188,0.000000
1372.650811,-9474.636058,74.020594,76.609550
1372.651136,-9400.615463,222.061783,0.000000
1372.651462,-9622.677246,0.000000,306.438199
1372.651787,-9400.615463,0.000000,153.219100
1372.652113,-9400.615463,148.041188,76.609550
1372.652438,-9474.636058,222.061783,229.828649
1372.652764,-9326.594869,0.000000,76.609550
1372.653089,-9178.553681,148.041188,0.000000
1372.653415,-9326.594869,74.020594,76.609550
1372.653740,-9326.594869,74.020594,153.219100
1372.654066,-9030.512492,-148.041188,76.609550
1372.654391,-9474.636058,222.061783,153.219100
1372.654717,-9474.636058,0.000000,153.219100
1372.655042,-9622.677246,296.082377,76.609550
1372.655368,-9326.594869,0.000000,536.266849
1372.655693,-9326.594869,0.000000,153.219100
1372.656019,-9474.636058,222.061783,0.000000
1372.656344,-9326.594869,0.000000,229.828649
1372.656670,-9474.636058,0.000000,306.438199
1372.656995,-9474.636058,222.061783,-153.219100
1372.657321,-9548.656652,74.020594,0.000000
1372.657646,-9474.636058,148.041188,0.000000
1372.657972,-9326.594869,148.041188,0.000000
1372.658297,-9400.615463,0.000000,76.609550
1372.658623,-9474.636058,222.061783,0.000000
1372.658949,-9474.636058,370.102971,-153.219100
1372.659274,-9326.594869,74.020594,0.000000
1372.659600,-9326.594869,296.082377,76.609550
1372.659925,-9548.656652,296.082377,229.828649
1372.660251,-9400.615463,74.020594,153.219100
1372.660576,-9474.636058,74.020594,76.609550
1372.660902,-9474.636058,0.000000,153.219100
1372.661227,-9400.615463,74.020594,-229.828649
1372.661553,-9474.636058,296.082377,153.219100
1372.661878,-9548.656652,370.102971,0.000000
1372.662204,-9474.636058,74.020594,229.828649
1372.662529,-8956.491898,148.041188,229.828649
1372.662855,-8882.471304,74.020594,0.000000
1372.663180,-9474.636058,74.020594,76.609550
1372.663506,-9326.594869,0.000000,76.609550
1372.663831,-9548.656652,222.061783,229.828649
1372.664157,-9326.594869,0.000000,229.828649
1372.664482,-9326.594869,222.061783,0.000000
1372.664808,-9474.636058,0.000000,0.000000
1372.665133,-9252.574275,0.000000,306.438199
1372.665459,-9400.615463,296.082377,0.000000
1372.665784,-9178.553681,0.000000,76.609550
1372.666110,-9326.594869,0.000000,-229.828649
1372.666435,-9252.574275,0.000000,383.047749
1372.666761,-9474.636058,0.000000,76.609550
1372.667086,-9400.615463,296.082377,76.609550
1372.667412,-9474.636058,0.000000,306.438199
1372.667737,-9400.615463,148.041188,229.828649
1372.668063,-9474.636058,148.041188,383.047749
1372.668388,-9178.553681,0.000000,536.266849
1372.668714,-9252.574275,0.000000,306.438199
1372.669039,-9548.656652,296.082377,0.000000
1372.669365,-9400.615463,222.061783,0.000000
1372.669691,-9178.553681,148.041188,76.609550
1372.670016,-9474.636058,74.020594,0.000000
1372.670342,-9474.636058,0.000000,153.219100
1372.670667,-9474.636058,74.020594,0.000000
1372.670993,-8956.491898,296.082377,153.219100
1372.671318,-9400.615463,444.123565,306.438199
1372.671644,-9548.656652,148.041188,0.000000
1372.671969,-9400.615463,74.020594,229.828649
1372.672295,-9326.594869,296.082377,76.609550
1372.672620,-9474.636058,222.061783,-229.828649
1372.672946,-9326.594869,0.000000,76.609550
1372.673271,-9474.636058,148.041188,0.000000
1372.673597,-9622.677246,296.082377,0.000000
1372.673923,-9178.553681,296.082377,0.000000
1372.674248,-9474.636058,148.041188,0.000000
1372.674574,-9252.574275,0.000000,0.000000
1372.674899,-9178.553681,0.000000,76.609550
1372.675225,-9474.636058,296.082377,0.000000
1372.675550,-9252.574275,0.000000,0.000000
1372.675876,-9474.636058,0.000000,76.609550
1372.676201,-9400.615463,0.000000,0.000000
1372.676527,-9474.636058,0.000000,153.219100
1372.676853,-9400.615463,222.061783,0.000000
1372.677178,-9474.636058,296.082377,0.000000
1372.677504,-9548.656652,296.082377,0.000000
1372.677829,-9178.553681,74.020594,-76.609550
1372.678155,-9474.636058,518.144159,76.609550
1372.678480,-9770.718434,148.041188,-76.609550
1372.678806,-9474.636058,222.061783,0.000000
1372.679131,-9474.636058,74.020594,153.219100
1372.679457,-9400.615463,0.000000,536.266849
1372.679783,-9474.636058,148.041188,0.000000
1372.680108,-9474.636058,222.061783,76.609550
1372.680434,-9474.636058,148.041188,0.000000
1372.680759,-9474.636058,0.000000,229.828649
1372.681085,-9104.533087,296.082377,-229.828649
1372.681410,-9770.718434,148.041188,0.000000
1372.681736,-9474.636058,222.061783,306.438199
1372.682061,-9696.697840,148.041188,76.609550
1372.682387,-9030.512492,0.000000,229.828649
1372.682713,-9548.656652,0.000000,459.657299
1372.683038,-9474.636058,148.041188,0.000000
1372.683364,-9474.636058,0.000000,153.219100
1372.683689,-9252.574275,222.061783,0.000000
1372.684015,-9696.697840,74.020594,383.047749
1372.684340,-9474.636058,0.000000,383.047749
1372.684666,-9474.636058,296.082377,76.609550
1372.684991,-9400.615463,0.000000,306.438199
1372.685317,-9030.512492,222.061783,-229.828649
1372.685643,-9474.636058,370.102971,-76.609550
1372.685968,-9548.656652,222.061783,0.000000
1372.686294,-9474.636058,148.041188,0.000000
1372.686619,-9474.636058,-74.020594,229.828649
1372.686945,-9400.615463,0.000000,229.828649
1372.687270,-9104.533087,0.000000,306.438199
1372.687596,-9252.574275,0.000000,306.438199
1372.687921,-9252.574275,222.061783,229.828649
1372.688247,-9252.574275,296.082377,0.000000
1372.688572,-9326.594869,148.041188,0.000000
1372.688898,-9400.615463,222.061783,0.000000
1372.689224,-9474.636058,296.082377,153.219100
1372.689549,-9400.615463,0.000000,0.000000
1372.689875,-9622.677246,148.041188,0.000000
1372.690200,-9474.636058,74.020594,0.000000
1372.690526,-9696.697840,370.102971,0.000000
1372.690851,-9104.533087,74.020594,0.000000
1372.691177,-9326.594869,148.041188,0.000000
1372.691502,-9548.656652,0.000000,0.000000
1372.691828,-9178.553681,0.000000,0.000000
1372.692154,-9400.615463,74.020594,306.438199
1372.692479,-9400.615463,0.000000,0.000000
1372.692805,-9400.615463,444.123565,0.000000
1372.693130,-9400.615463,148.041188,153.219100
1372.693456,-9252.574275,222.061783,0.000000
1372.693781,-9474.636058,296.082377,229.828649
1372.694107,-9252.574275,296.082377,0.000000
1372.694432,-9400.615463,148.041188,0.000000
1372.694758,-9178.553681,222.061783,0.000000
1372.695084,-9474.636058,74.020594,612.876398
1372.695409,-9548.656652,222.061783,76.609550
1372.695735,-9400.615463,74.020594,383.047749
1372.696060,-9252.574275,0.000000,383.047749
1372.696386,-9474.636058,74.020594,0.000000
1372.696711,-9400.615463,74.020594,-76.609550
1372.697037,-9400.615463,-74.020594,0.000000
1372.697362,-9400.615463,0.000000,306.438199
1372.697688,-9400.615463,0.000000,76.609550
1372.698014,-9400.615463,148.041188,-229.828649
1372.698339,-9400.615463,0.000000,0.000000
1372.698665,-9474.636058,148.041188,0.000000
1372.698990,-9474.636058,0.000000,153.219100
1372.699316,-9474.636058,0.000000,0.000000
1372.699641,-9326.594869,222.061783,0.000000
1372.699967,-9548.656652,0.000000,229.828649
1372.700292,-9400.615463,222.061783,0.000000
1372.700618,-9400.615463,222.061783,153.219100
1372.700944,-9400.615463,222.061783,-229.828649
1372.701269,-9104.533087,0.000000,76.609550
1372.701595,-9400.615463,296.082377,0.000000
1372.701920,-9252.574275,74.020594,229.828649
1372.702246,-9474.636058,296.082377,153.219100
1372.702571,-9326.594869,148.041188,76.609550
1372.702897,-9178.553681,0.000000,153.219100
1372.703222,-9252.574275,0.000000,0.000000
1372.703548,-9400.615463,370.102971,-153.219100
1372.703874,-9474.636058,74.020594,229.828649
1372.704199,-9474.636058,222.061783,0.000000
1372.704525,-9474.636058,148.041188,229.828649
1372.704850,-9400.615463,222.061783,229.828649
1372.705176,-9474.636058,592.164754,536.266849
1372.705501,-9252.574275,370.102971,76.609550
1372.705827,-9474.636058,74.020594,153.219100
1372.706152,-9622.677246,222.061783,76.609550
1372.706478,-9030.512492,222.061783,-612.876398
1372.706804,-9474.636058,0.000000,0.000000
1372.707129,-9474.636058,74.020594,76.609550
1372.707455,-9178.553681,74.020594,0.000000
1372.707780,-9474.636058,148.041188,0.000000
1372.708106,-9474.636058,0.000000,229.828649
1372.708431,-9400.615463,370.102971,0.000000
1372.708757,-9474.636058,148.041188,0.000000
1372.709082,-9326.594869,0.000000,229.828649
1372.709408,-9030.512492,370.102971,0.000000
1372.709734,-9400.615463,-222.061783,153.219100
1372.710059,-9474.636058,0.000000,76.609550
1372.710385,-9326.594869,0.000000,306.438199
1372.710710,-9474.636058,444.123565,-536.266849
1372.711036,-9178.553681,0.000000,0.000000
1372.711361,-9178.553681,0.000000,76.609550
1372.711687,-9326.594869,0.000000,306.438199
1372.712012,-9252.574275,74.020594,0.000000
1372.712338,-9622.677246,222.061783,-229.828649
1372.712664,-9326.594869,0.000000,-229.828649
1372.712989,-9474.636058,296.082377,0.000000
1372.713315,-9474.636058,0.000000,153.219100
1372.713640,-9178.553681,444.123565,459.657299
1372.713966,-9326.594869,148.041188,0.000000
1372.714291,-9474.636058,0.000000,76.609550
1372.714617,-9400.615463,222.061783,0.000000
1372.714942,-9474.636058,0.000000,0.000000
1372.715268,-9622.677246,296.082377,76.609550
1372.715594,-9400.615463,148.041188,229.828649
1372.715919,-9548.656652,296.082377,0.000000
1372.716245,-9400.615463,74.020594,-229.828649
1372.716570,-9252.574275,296.082377,0.000000
1372.716896,-9326.594869,222.061783,76.609550
1372.717221,-9326.594869,222.061783,229.828649
1372.717547,-9326.594869,74.020594,306.438199
1372.717872,-8660.409521,370.102971,306.438199
1372.718198,-9474.636058,74.020594,229.828649
1372.718524,-9326.594869,148.041188,0.000000
1372.718849,-9474.636058,0.000000,0.000000
1372.719175,-9474.636058,370.102971,0.000000
1372.719500,-9474.636058,296.082377,0.000000
1372.719826,-9104.533087,74.020594,229.828649
1372.720151,-9326.594869,74.020594,153.219100
1372.720477,-9548.656652,0.000000,0.000000
1372.720802,-9474.636058,666.185348,-459.657299
1372.721128,-9474.636058,222.061783,0.000000
1372.721454,-9326.594869,222.061783,76.609550
1372.721779,-9326.594869,222.061783,0.000000
1372.722105,-9178.553681,0.000000,229.828649
1372.722430,-9474.636058,0.000000,306.438199
1372.722756,-9400.615463,222.061783,306.438199
1372.723081,-9474.636058,148.041188,229.828649
1372.723407,-9474.636058,0.000000,229.828649
1372.723732,-9696.697840,296.082377,0.000000
1372.724058,-9474.636058,74.020594,229.828649
1372.724383,-9178.553681,0.000000,306.438199
1372.724709,-9326.594869,-148.041188,76.609550
1372.725035,-9474.636058,222.061783,76.609550
1372.725360,-9326.594869,222.061783,153.219100
1372.725686,-9326.594869,222.061783,0.000000
1372.726011,-9326.594869,74.020594,0.000000
1372.726337,-9178.553681,148.041188,0.000000
1372.726662,-9474.636058,0.000000,153.219100
1372.726988,-9474.636058,222.061783,0.000000
1372.727313,-9400.615463,0.000000,153.219100
1372.727639,-9400.615463,148.041188,229.828649
1372.727965,-9252.574275,296.082377,76.609550
1372.728290,-9474.636058,74.020594,76.609550
1372.728616,-9400.615463,74.020594,0.000000
1372.728941,-9474.636058,0.000000,76.609550
1372.729267,-9252.574275,222.061783,0.000000
1372.729592,-9474.636058,222.061783,0.000000
1372.729918,-9252.574275,0.000000,383.047749
1372.730243,-9178.553681,0.000000,76.609550
1372.730569,-9326.594869,0.000000,-459.657299
1372.730895,-9326.594869,0.000000,306.438199
1372.731220,-9252.574275,148.041188,0.000000
1372.731546,-9548.656652,296.082377,0.000000
1372.731871,-9400.615463,0.000000,153.219100
1372.732197,-9252.574275,370.102971,0.000000
1372.732522,-9326.594869,0.000000,0.000000
1372.732848,-9252.574275,296.082377,0.000000
1372.733173,-9252.574275,222.061783,0.000000
1372.733499,-9178.553681,148.041188,0.000000
1372.733825,-9474.636058,222.061783,459.657299
1372.734150,-9474.636058,148.041188,0.000000
1372.734476,-9474.636058,148.041188,153.219100
1372.734801,-9400.615463,222.061783,306.438199
1372.735127,-9252.574275,0.000000,76.609550
1372.735452,-9548.656652,0.000000,306.438199
1372.735778,-9326.594869,74.020594,76.609550
1372.736103,-9548.656652,0.000000,306.438199
1372.736429,-9326.594869,222.061783,-229.828649
1372.736755,-9622.677246,0.000000,-153.219100
1372.737080,-9548.656652,296.082377,153.219100
1372.737406,-9326.594869,0.000000,153.219100
1372.737731,-9548.656652,518.144159,-459.657299
1372.738057,-9326.594869,0.000000,153.219100
1372.738382,-9696.697840,444.123565,0.000000
1372.738708,-9400.615463,74.020594,0.000000
1372.739033,-9400.615463,296.082377,-76.609550
1372.739359,-9474.636058,148.041188,306.438199
1372.739685,-9326.594869,74.020594,0.000000
1372.740010,-9252.574275,0.000000,306.438199
1372.740336,-9474.636058,370.102971,-306.438199
1372.740661,-9326.594869,0.000000,0.000000
1372.740987,-9104.533087,74.020594,0.000000
1372.741312,-9178.553681,0.000000,459.657299
1372.741638,-9252.574275,74.020594,-229.828649
1372.741963,-9696.697840,74.020594,536.266849
1372.742289,-9548.656652,148.041188,153.219100
1372.742615,-9326.594869,222.061783,0.000000
1372.742940,-9326.594869,0.000000,76.609550
1372.743266,-9326.594869,148.041188,153.219100
1372.743591,-9400.615463,296.082377,459.657299
1372.743917,-9622.677246,222.061783,0.000000
1372.744242,-9400.615463,0.000000,0.000000
1372.744568,-9548.656652,74.020594,383.047749
1372.744893,-9252.574275,148.041188,459.657299
1372.745219,-9400.615463,0.000000,229.828649
1372.745545,-9326.594869,74.020594,229.828649
1372.745870,-9474.636058,74.020594,306.438199
1372.746196,-9400.615463,148.041188,306.438199
1372.746521,-9400.615463,0.000000,0.000000
1372.746847,-9474.636058,0.000000,76.609550
1372.747172,-9474.636058,296.082377,153.219100
1372.747498,-9474.636058,74.020594,153.219100
1372.747823,-9178.553681,0.000000,0.000000
1372.748149,-9474.636058,148.041188,0.000000
1372.748475,-9474.636058,222.061783,0.000000
1372.748800,-9104.533087,74.020594,0.000000
1372.749126,-9474.636058,222.061783,76.609550
1372.749451,-9326.594869,74.020594,0.000000
1372.749777,-9622.677246,222.061783,0.000000
1372.750102,-9326.594869,296.082377,0.000000
1372.750428,-9548.656652,222.061783,0.000000
1372.750753,-9326.594869,74.020594,0.000000
1372.751079,-9326.594869,222.061783,306.438199
1372.751405,-9474.636058,0.000000,0.000000
1372.751730,-9252.574275,222.061783,0.000000
1372.752056,-8882.471304,222.061783,0.000000
1372.752381,-9474.636058,148.041188,153.219100
1372.752707,-9548.656652,74.020594,76.609550
1372.753032,-9326.594869,148.041188,153.219100
1372.753358,-9104.533087,518.144159,0.000000
1372.753683,-9474.636058,222.061783,76.609550
1372.754009,-9474.636058,222.061783,0.000000
1372.754335,-9474.636058,0.000000,0.000000
1372.754660,-9474.636058,0.000000,229.828649
1372.754986,-9474.636058,148.041188,229.828649
1372.755311,-9474.636058,148.041188,0.000000
1372.755637,-9548.656652,370.102971,-229.828649
1372.755962,-9178.553681,-148.041188,153.219100
1372.756288,-9252.574275,296.082377,0.000000
1372.756613,-9474.636058,222.061783,0.000000
1372.756939,-9474.636058,222.061783,76.609550
1372.757265,-9548.656652,148.041188,0.000000
1372.757590,-9252.574275,74.020594,-153.219100
1372.757916,-9474.636058,0.000000,383.047749
1372.758241,-9548.656652,74.020594,306.438199
1372.758567,-9548.656652,296.082377,229.828649
1372.758892,-9696.697840,0.000000,229.828649
1372.759218,-9474.636058,0.000000,536.266849
1372.759543,-9252.574275,0.000000,306.438199
1372.759869,-9400.615463,296.082377,0.000000
1372.760194,-9400.615463,0.000000,0.000000
1372.760520,-9400.615463,222.061783,0.000000
1372.760846,-9252.574275,296.082377,0.000000
1372.761171,-9474.636058,0.000000,153.219100
1372.761497,-9474.636058,148.041188,0.000000
1372.761822,-9326.594869,0.000000,153.219100
1372.762148,-9326.594869,0.000000,153.219100
1372.762473,-9474.636058,0.000000,153.219100
1372.762799,-9548.656652,222.061783,153.219100
1372.763124,-9548.656652,148.041188,0.000000
1372.763450,-9252.574275,0.000000,0.000000
1372.763776,-9400.615463,74.020594,153.219100
1372.764101,-9400.615463,0.000000,76.609550
1372.764427,-9326.594869,222.061783,76.609550
1372.764752,-9400.615463,0.000000,0.000000
1372.765078,-9252.574275,0.000000,0.000000
1372.765403,-9474.636058,148.041188,-229.828649
1372.765729,-9104.533087,148.041188,0.000000
1372.766054,-9326.594869,0.000000,229.828649
1372.766380,-9474.636058,74.020594,229.828649
1372.766706,-9474.636058,74.020594,229.828649
1372.767031,-9326.594869,74.020594,0.000000
1372.767357,-9474.636058,370.102971,0.000000
1372.767682,-9252.574275,370.102971,306.438199
1372.768008,-9474.636058,370.102971,76.609550
1372.768333,-9548.656652,74.020594,229.828649
1372.768659,-9474.636058,0.000000,383.047749
1372.768984,-9326.594869,148.041188,76.609550
1372.769310,-9548.656652,148.041188,0.000000
1372.769636,-9474.636058,148.041188,306.438199
1372.769961,-9400.615463,444.123565,0.000000
1372.770287,-9474.636058,222.061783,76.609550
1372.770612,-9326.594869,0.000000,153.219100
1372.770938,-9548.656652,222.061783,459.657299
1372.771263,-9548.656652,0.000000,76.609550
1372.771589,-9326.594869,74.020594,0.000000
1372.771914,-9178.553681,0.000000,229.828649
1372.772240,-9400.615463,0.000000,76.609550
1372.772566,-9400.615463,74.020594,-153.219100
1372.772891,-9474.636058,370.102971,76.609550
1372.773217,-9030.512492,0.000000,-306.438199
1372.773542,-9326.594869,0.000000,153.219100
1372.773868,-9474.636058,0.000000,-383.047749
1372.774193,-9474.636058,0.000000,306.438199
1372.774519,-9252.574275,0.000000,0.000000
1372.774845,-9252.574275,148.041188,0.000000
1372.775170,-9400.615463,74.020594,76.609550
1372.775496,-9400.615463,148.041188,0.000000
1372.775821,-9252.574275,0.000000,0.000000
1372.776147,-9178.553681,222.061783,-612.876398
1372.776472,-9548.656652,296.082377,76.609550
1372.776798,-9400.615463,148.041188,153.219100
1372.777123,-9326.594869,74.020594,0.000000
1372.777449,-9400.615463,222.061783,383.047749
1372.777775,-9474.636058,222.061783,153.219100
1372.778100,-9400.615463,74.020594,306.438199
1372.778426,-9474.636058,0.000000,0.000000
1372.778751,-9474.636058,0.000000,76.609550
1372.779077,-9548.656652,74.020594,0.000000
1372.779402,-9474.636058,74.020594,0.000000
1372.779728,-9696.697840,74.020594,0.000000
1372.780054,-9400.615463,74.020594,76.609550
1372.780379,-9252.574275,444.123565,-383.047749
1372.780705,-9474.636058,0.000000,229.828649
1372.781030,-9622.677246,296.082377,76.609550
1372.781356,-9548.656652,74.020594,306.438199
1372.781681,-9326.594869,148.041188,306.438199
1372.782007,-9252.574275,74.020594,153.219100
1372.782332,-9474.636058,74.020594,0.000000
1372.782658,-9474.636058,296.082377,-306.438199
1372.782984,-9474.636058,148.041188,0.000000
1372.783309,-8882.471304,0.000000,76.609550
1372.783635,-9474.636058,296.082377,0.000000
1372.783960,-9622.677246,0.000000,0.000000
1372.784286,-9326.594869,148.041188,76.609550
1372.784611,-9030.512492,370.102971,306.438199
1372.784937,-9400.615463,74.020594,0.000000
1372.785263,-9548.656652,74.020594,-229.828649
1372.785588,-9400.615463,0.000000,229.828649
1372.785914,-9474.636058,296.082377,0.000000
1372.786239,-9104.533087,0.000000,0.000000
1372.786565,-9548.656652,296.082377,0.000000
1372.786890,-9474.636058,0.000000,229.828649
1372.787216,-9400.615463,0.000000,153.219100
1372.787541,-9326.594869,0.000000,-76.609550
1372.787867,-9474.636058,222.061783,0.000000
1372.788193,-9326.594869,148.041188,229.828649
1372.788518,-9400.615463,0.000000,153.219100
1372.788844,-9326.594869,0.000000,-612.876398
1372.789169,-9622.677246,222.061783,0.000000
1372.789495,-9548.656652,148.041188,0.000000
1372.789820,-9178.553681,148.041188,306.438199
1372.790146,-9104.533087,0.000000,76.609550
1372.790471,-9252.574275,0.000000,76.609550
1372.790797,-9622.677246,148.041188,0.000000
1372.791123,-9474.636058,0.000000,153.219100
1372.791448,-9474.636058,0.000000,0.000000
1372.791774,-9622.677246,148.041188,-383.047749
1372.792099,-9548.656652,0.000000,153.219100
1372.792425,-9178.553681,296.082377,0.000000
1372.792750,-9252.574275,0.000000,153.219100
1372.793076,-9474.636058,444.123565,153.219100
1372.793402,-9474.636058,222.061783,153.219100
1372.793727,-9548.656652,222.061783,0.000000
1372.794053,-9326.594869,148.041188,0.000000
1372.794378,-9178.553681,0.000000,229.828649
1372.794704,-9622.677246,148.041188,229.828649
1372.795029,-9622.677246,222.061783,0.000000
1372.795355,-9326.594869,222.061783,76.609550
1372.795680,-9252.574275,0.000000,0.000000
1372.796006,-8882.471304,74.020594,153.219100
1372.796332,-9400.615463,444.123565,-229.828649
1372.796657,-9252.574275,0.000000,76.609550
1372.796983,-9474.636058,0.000000,76.609550
1372.797308,-9326.594869,74.020594,76.609550
1372.797634,-9252.574275,0.000000,153.219100
1372.797959,-9326.594869,222.061783,459.657299
1372.798285,-9326.594869,74.020594,0.000000
1372.798611,-9326.594869,370.102971,229.828649
1372.798936,-8882.471304,148.041188,0.000000
1372.799262,-9400.615463,222.061783,76.609550
1372.799587,-9474.636058,518.144159,383.047749
1372.799913,-9548.656652,148.041188,153.219100
1372.800238,-9252.574275,0.000000,0.000000
1372.800564,-9400.615463,0.000000,153.219100
1372.800889,-9326.594869,296.082377,0.000000
1372.801215,-9474.636058,370.102971,76.609550
1372.801541,-9474.636058,222.061783,76.609550
1372.801866,-9474.636058,444.123565,76.609550
1372.802192,-9622.677246,148.041188,153.219100
1372.802517,-9548.656652,296.082377,0.000000
1372.802843,-9474.636058,296.082377,76.609550
1372.803168,-9622.677246,370.102971,0.000000
1372.803494,-9474.636058,0.000000,229.828649
1372.803820,-9474.636058,74.020594,459.657299
1372.804145,-9992.780217,0.000000,306.438199
1372.804471,-9770.718434,0.000000,459.657299
1372.804796,-9844.739029,296.082377,-229.828649
1372.805122,-10066.800811,0.000000,153.219100
1372.805447,-9918.759623,0.000000,76.609550
1372.805773,-10066.800811,296.082377,153.219100
1372.806098,-10214.842000,296.082377,383.047749
1372.806424,-9918.759623,148.041188,0.000000
1372.806750,-10584.944971,0.000000,0.000000
1372.807075,-10584.944971,0.000000,-306.438199
1372.807401,-10510.924376,444.123565,-229.828649
1372.807726,-10214.842000,0.000000,459.657299
1372.808052,-9918.759623,-296.082377,612.876398
1372.808377,-9770.718434,0.000000,153.219100
1372.808703,-9622.677246,-296.082377,612.876398
1372.809029,-9622.677246,-370.102971,0.000000
1372.809354,-9696.697840,0.000000,-536.266849
1372.809680,-9474.636058,0.000000,0.000000
1372.810005,-9474.636058,148.041188,0.000000
1372.810331,-9474.636058,0.000000,612.876398
1372.810656,-9548.656652,148.041188,0.000000
1372.810982,-10066.800811,0.000000,306.438199
1372.811307,-10066.800811,222.061783,76.609550
1372.811633,-9548.656652,222.061783,229.828649
1372.811959,-9918.759623,0.000000,153.219100
1372.812284,-10140.821405,148.041188,689.485948
1372.812610,-10214.842000,592.164754,536.266849
1372.812935,-9622.677246,518.144159,842.705048
1372.813261,-9918.759623,0.000000,229.828649
1372.813586,-9770.718434,444.123565,-612.876398
1372.813912,-9474.636058,222.061783,0.000000
1372.814238,-9104.533087,518.144159,0.000000
1372.814563,-9252.574275,370.102971,153.219100
1372.814889,-9252.574275,666.185348,0.000000
1372.815214,-9474.636058,518.144159,76.609550
1372.815540,-9030.512492,296.082377,-459.657299
1372.815865,-9326.594869,222.061783,0.000000
1372.816191,-9622.677246,370.102971,-306.438199
1372.816516,-10140.821405,222.061783,-153.219100
1372.816842,-9696.697840,296.082377,0.000000
1372.817168,-10066.800811,222.061783,459.657299
1372.817493,-10066.800811,296.082377,76.609550
1372.817819,-10362.883188,148.041188,-153.219100
1372.818144,-9992.780217,148.041188,-306.438199
1372.818470,-10066.800811,74.020594,-306.438199
1372.818795,-9992.780217,0.000000,612.876398
1372.819121,-10140.821405,296.082377,766.095498
1372.819447,-10140.821405,222.061783,306.438199
1372.819772,-9548.656652,74.020594,306.438199
1372.820098,-9844.739029,148.041188,0.000000
1372.820423,-9474.636058,0.000000,0.000000
1372.820749,-9696.697840,74.020594,-306.438199
1372.821074,-9474.636058,0.000000,76.609550
1372.821400,-9548.656652,-74.020594,76.609550
1372.821725,-9474.636058,0.000000,153.219100
1372.822051,-9474.636058,-592.164754,-306.438199
1372.822377,-9030.512492,-592.164754,76.609550
1372.822702,-9252.574275,-518.144159,0.000000
1372.823028,-9326.594869,-148.041188,459.657299
1372.823353,-9252.574275,-592.164754,383.047749
1372.823679,-9548.656652,0.000000,383.047749
1372.824004,-9622.677246,-592.164754,459.657299
1372.824330,-9622.677246,-148.041188,229.828649
1372.824656,-9770.718434,-370.102971,383.047749
1372.824981,-9844.739029,148.041188,0.000000
1372.825307,-10140.821405,296.082377,306.438199
1372.825632,-10288.862594,888.247130,0.000000
1372.825958,-10436.903782,518.144159,-153.219100
1372.826283,-10214.842000,740.205942,-383.047749
1372.826609,-10066.800811,814.226536,-383.047749
1372.826934,-9400.615463,740.205942,-383.047749
1372.827260,-9030.512492,444.123565,459.657299
1372.827586,-9326.594869,888.247130,76.609550
1372.827911,-9104.533087,740.205942,459.657299
1372.828237,-9548.656652,666.185348,536.266849
1372.828562,-9844.739029,740.205942,459.657299
1372.828888,-10140.821405,666.185348,306.438199
1372.829213,-10732.986159,370.102971,459.657299
1372.829539,-10807.006753,148.041188,612.876398
1372.829865,-11325.150913,0.000000,766.095498
1372.830190,-11177.109724,148.041188,919.314598
1372.830516,-11399.171507,-444.123565,612.876398
1372.830841,-11029.068536,-296.082377,-306.438199
1372.831167,-10584.944971,-592.164754,-689.485948
1372.831492,-9474.636058,-740.205942,-612.876398
1372.831818,-8364.327145,-888.247130,-1532.190996
1372.832143,-7550.100608,-888.247130,-1225.752797
1372.832469,-7031.956449,-518.144159,-766.095498
1372.832795,-7105.977043,-296.082377,-612.876398
1372.833120,-7031.956449,-444.123565,-306.438199
1372.833446,-7550.100608,-222.061783,229.828649
1372.833771,-7772.162391,0.000000,612.876398
1372.834097,-8512.368333,296.082377,306.438199
1372.834422,-9400.615463,74.020594,229.828649
1372.834748,-10066.800811,666.185348,0.000000
1372.835074,-11251.130318,1036.288319,0.000000
1372.835399,-12435.459826,814.226536,229.828649
1372.835725,-13693.809927,1184.329507,689.485948
1372.836050,-13915.871710,1258.350101,919.314598
1372.836376,-13841.851115,1258.350101,1302.362347
1372.836701,-12805.562797,888.247130,1149.143247
1372.837027,-11695.253884,592.164754,689.485948
1372.837352,-9918.759623,74.020594,383.047749
1372.837678,-8142.265362,-296.082377,0.000000
1372.838004,-6883.915261,-666.185348,-306.438199
1372.838329,-5551.544565,-1110.308913,-1072.533697
1372.838655,-4589.276840,-1036.288319,-766.095498
1372.838980,-5033.400406,-740.205942,-1072.533697
1372.839306,-6365.771101,-518.144159,-995.924147
1372.839631,-8364.327145,-444.123565,-536.266849
1372.839957,-9992.780217,-222.061783,536.266849
1372.840283,-10732.986159,148.041188,1378.971896
1372.840608,-11621.233289,-148.041188,1762.019645
1372.840934,-11695.253884,0.000000,1838.629195
1372.841259,-11843.295072,222.061783,1225.752797
1372.841585,-11991.336260,888.247130,0.000000
1372.841910,-12509.480420,1258.350101,-612.876398
1372.842236,-12583.501014,1184.329507,-919.314598
1372.842561,-12287.418637,1628.453072,-536.266849
1372.842887,-11177.109724,1184.329507,229.828649
1372.843213,-9696.697840,370.102971,383.047749
1372.843538,-8290.306550,0.000000,459.657299
1372.843864,-6513.812290,-740.205942,153.219100
1372.844189,-5773.606348,-888.247130,-842.705048
1372.844515,-6143.709319,-592.164754,-995.924147
1372.844840,-7994.224174,-370.102971,-919.314598
1372.845166,-9696.697840,0.000000,0.000000
1372.845492,-10732.986159,-592.164754,306.438199
1372.845817,-10510.924376,-592.164754,766.095498
1372.846143,-10214.842000,-666.185348,1149.143247
1372.846468,-8956.491898,-666.185348,306.438199
1372.846794,-7698.141797,-888.247130,842.705048
1372.847119,-7550.100608,-444.123565,76.609550
1372.847445,-8364.327145,666.185348,-536.266849
1372.847770,-9918.759623,1702.473667,-383.047749
1372.848096,-11621.233289,2294.638420,-1072.533697
1372.848422,-12065.356855,2220.617826,0.000000
1372.848747,-11029.068536,1924.535449,-689.485948
1372.849073,-9474.636058,888.247130,0.000000
1372.849398,-7772.162391,0.000000,0.000000
1372.849724,-7328.038826,-222.061783,-306.438199
1372.850049,-7328.038826,-888.247130,229.828649
1372.850375,-9622.677246,-518.144159,536.266849
1372.850701,-10658.965565,0.000000,1302.362347
1372.851026,-10881.027347,-296.082377,1455.581446
1372.851352,-9474.636058,-962.267725,1532.190996
1372.851677,-7476.080014,-1184.329507,1762.019645
1372.852003,-5181.441594,-1184.329507,689.485948
1372.852328,-3849.070898,-962.267725,-842.705048
1372.852654,-4515.256246,-148.041188,-1302.362347
1372.852979,-6957.935855,740.205942,-2068.457845
1372.853305,-9770.718434,1480.411884,-1685.410096
1372.853631,-12731.542202,2368.659014,-919.314598
1372.853956,-14878.139434,2368.659014,919.314598
1372.854282,-14211.954086,1924.535449,2221.676944
1372.854607,-13027.624579,814.226536,1762.019645
1372.854933,-11695.253884,0.000000,766.095498
1372.855258,-10436.903782,0.000000,-229.828649
1372.855584,-10807.006753,-222.061783,-1149.143247
1372.855910,-11547.212695,74.020594,-1302.362347
1372.856235,-11695.253884,222.061783,-766.095498
1372.856561,-10066.800811,-592.164754,-459.657299
1372.856886,-7179.997637,-1480.411884,306.438199
1372.857212,-4293.194464,-2368.659014,766.095498
1372.857537,-2886.803174,-2960.823768,153.219100
1372.857863,-2146.597232,-2146.597232,-306.438199
1372.858188,-3627.009116,-1258.350101,-612.876398
1372.858514,-6587.832884,0.000000,-153.219100
1372.858840,-10510.924376,1184.329507,229.828649
1372.859165,-13619.789333,2294.638420,0.000000
1372.859491,-15174.221811,1998.556043,689.485948
1372.859816,-14434.015869,1480.411884,1149.143247
1372.860142,-13027.624579,444.123565,1532.190996
1372.860467,-12583.501014,222.061783,1455.581446
1372.860793,-12065.356855,814.226536,842.705048
1372.861119,-11917.315666,814.226536,536.266849
1372.861444,-11769.274478,592.164754,-383.047749
1372.861770,-10214.842000,148.041188,-536.266849
1372.862095,-7624.121203,-592.164754,0.000000
1372.862421,-4589.276840,-1406.391290,-229.828649
1372.862746,-1998.556043,-1776.494261,689.485948
1372.863072,-2590.720797,-1258.350101,536.266849
1372.863397,-3701.029710,-666.185348,-842.705048
1372.863723,-5403.503377,0.000000,-1378.971896
1372.864049,-8956.491898,1406.391290,-919.314598
1372.864374,-12435.459826,2516.700203,-766.095498
1372.864700,-14434.015869,2442.679609,-459.657299
1372.865025,-14434.015869,1554.432478,612.876398
1372.865351,-13841.851115,1110.308913,1685.410096
1372.865676,-13323.706956,370.102971,1378.971896
1372.866002,-13175.665768,222.061783,306.438199
1372.866327,-12953.603985,888.247130,-306.438199
1372.866653,-12139.377449,814.226536,-153.219100
1372.866979,-9548.656652,74.020594,-842.705048
1372.867304,-6217.729913,-1332.370696,-1072.533697
1372.867630,-4145.153275,-1628.453072,229.828649
1372.867955,-2368.659014,-1554.432478,76.609550
1372.868281,-2294.638420,-1850.514855,229.828649
1372.868606,-3552.988522,-1332.370696,-612.876398
1372.868932,-5255.462188,-592.164754,-689.485948
1372.869258,-7994.224174,370.102971,612.876398
1372.869583,-11621.233289,1480.411884,459.657299
1372.869909,-13397.727550,1628.453072,995.924147
1372.870234,-14952.160028,1776.494261,1762.019645
1372.870560,-14211.954086,444.123565,766.095498
1372.870885,-12879.583391,370.102971,229.828649
1372.871211,-13989.892304,0.000000,0.000000
1372.871536,-13397.727550,296.082377,0.000000
1372.871862,-12435.459826,666.185348,612.876398
1372.872188,-10658.965565,0.000000,-766.095498
1372.872513,-6513.812290,-962.267725,-1225.752797
1372.872839,-5033.400406,-962.267725,-612.876398
1372.873164,-2664.741391,-1776.494261,-919.314598
1372.873490,-1258.350101,-1332.370696,-612.876398
1372.873815,-3997.112087,-1332.370696,383.047749
1372.874141,-5477.523971,-74.020594,-153.219100
1372.874467,-7105.977043,296.082377,842.705048
1372.874792,-11103.089130,1480.411884,153.219100
1372.875118,-13471.748144,2368.659014,76.609550
1372.875443,-15174.221811,2072.576638,1225.752797
1372.875769,-14730.098246,1406.391290,306.438199
1372.876094,-12731.542202,148.041188,842.705048
1372.876420,-13619.789333,148.041188,1532.190996
1372.876746,-13397.727550,148.041188,1072.533697
1372.877071,-11843.295072,888.247130,76.609550
1372.877397,-10881.027347,0.000000,-842.705048
1372.877722,-8216.285956,-1036.288319,-2528.115143
1372.878048,-4885.359217,-1406.391290,-1378.971896
1372.878373,-3404.947333,-1036.288319,-383.047749
1372.878699,-1998.556043,-666.185348,-689.485948
1372.879025,-3701.029710,-370.102971,383.047749
1372.879350,-6217.729913,-370.102971,-919.314598
1372.879676,-6513.812290,222.061783,-229.828649
1372.880001,-9548.656652,1702.473667,306.438199
1372.880327,-13027.624579,2072.576638,842.705048
1372.880652,-14285.974681,1998.556043,1838.629195
1372.880978,-14878.139434,1406.391290,2068.457845
1372.881304,-13249.686362,888.247130,1072.533697
1372.881629,-12879.583391,222.061783,919.314598
1372.881955,-13545.768739,-222.061783,766.095498
1372.882280,-11621.233289,814.226536,-306.438199
1372.882606,-10362.883188,222.061783,229.828649
1372.882931,-8660.409521,-666.185348,-1762.019645
1372.883257,-5699.585753,-1184.329507,-1608.800546
1372.883583,-4885.359217,-962.267725,0.000000
1372.883908,-3108.864956,-814.226536,-306.438199
1372.884234,-3182.885551,-814.226536,-306.438199
1372.884559,-6217.729913,-444.123565,229.828649
1372.884885,-7105.977043,0.000000,0.000000
1372.885210,-8512.368333,740.205942,689.485948
1372.885536,-11769.274478,1702.473667,689.485948
1372.885861,-14285.974681,1850.514855,1608.800546
1372.886187,-15544.324782,1258.350101,1762.019645
1372.886513,-14137.933492,296.082377,76.609550
1372.886838,-12287.418637,0.000000,229.828649
1372.887164,-12879.583391,-370.102971,1149.143247
1372.887489,-11843.295072,-222.061783,229.828649
1372.887815,-9918.759623,296.082377,-383.047749
1372.888140,-9474.636058,-370.102971,-919.314598
1372.888466,-7031.956449,-1480.411884,-2068.457845
1372.888792,-5181.441594,-2072.576638,-612.876398
1372.889117,-4293.194464,-1184.329507,-689.485948
1372.889443,-3552.988522,-740.205942,766.095498
1372.889768,-5773.606348,296.082377,842.705048
1372.890094,-7550.100608,-592.164754,-306.438199
1372.890419,-7550.100608,740.205942,-306.438199
1372.890745,-10881.027347,1776.494261,306.438199
1372.891071,-14137.933492,2146.597232,153.219100
1372.891396,-14730.098246,1850.514855,1302.362347
1372.891722,-14952.160028,1406.391290,919.314598
1372.892047,-12731.542202,0.000000,612.876398
1372.892373,-12065.356855,0.000000,1532.190996
1372.892698,-12509.480420,0.000000,229.828649
1372.893024,-10584.944971,592.164754,-689.485948
1372.893350,-8882.471304,222.061783,-1149.143247
1372.893675,-7698.141797,-1406.391290,-2068.457845
1372.894001,-5329.482782,-1258.350101,-995.924147
1372.894326,-4737.318029,-1258.350101,536.266849
1372.894652,-3997.112087,-444.123565,689.485948
1372.894977,-5255.462188,0.000000,1915.238745
1372.895303,-7994.224174,0.000000,306.438199
1372.895629,-7031.956449,518.144159,-1225.752797
1372.895954,-8734.430116,1258.350101,383.047749
1372.896280,-12953.603985,2294.638420,459.657299
1372.896605,-14582.057057,2516.700203,1378.971896
1372.896931,-15988.448347,2072.576638,1685.410096
1372.897256,-13841.851115,666.185348,0.000000
1372.897582,-11917.315666,-222.061783,306.438199
1372.897908,-12509.480420,-518.144159,0.000000
1372.898233,-10881.027347,518.144159,-689.485948
1372.898559,-8660.409521,0.000000,-612.876398
1372.898884,-7550.100608,-1776.494261,-1762.019645
1372.899210,-5477.523971,-2442.679609,-1991.848295
1372.899535,-5107.421000,-2072.576638,76.609550
1372.899861,-4293.194464,-1258.350101,1072.533697
1372.900187,-4219.173869,-592.164754,995.924147
1372.900512,-6439.791695,-888.247130,1072.533697
1372.900838,-6735.874072,-1184.329507,-229.828649
1372.901163,-7994.224174,592.164754,-229.828649
1372.901489,-11621.233289,1554.432478,383.047749
1372.901814,-14137.933492,2590.720797,536.266849
1372.902140,-15618.345376,2294.638420,1838.629195
1372.902466,-14508.036463,1332.370696,76.609550
1372.902791,-12731.542202,74.020594,153.219100
1372.903117,-13027.624579,148.041188,612.876398
1372.903442,-12065.356855,666.185348,-612.876398
1372.903768,-9918.759623,518.144159,-459.657299
1372.904093,-8512.368333,-296.082377,-1532.190996
1372.904419,-6513.812290,-1776.494261,-1838.629195
1372.904744,-5477.523971,-1554.432478,-76.609550
1372.905070,-4737.318029,-888.247130,306.438199
1372.905396,-3552.988522,74.020594,1455.581446
1372.905721,-5995.668130,-148.041188,1072.533697
1372.906047,-6809.894666,-518.144159,0.000000
1372.906372,-7105.977043,74.020594,-229.828649
1372.906698,-9696.697840,1110.308913,153.219100
1372.907023,-12583.501014,2516.700203,1149.143247
1372.907349,-14878.139434,2664.741391,1991.848295
1372.907675,-14878.139434,2072.576638,383.047749
1372.908000,-13249.686362,370.102971,0.000000
1372.908326,-12583.501014,444.123565,306.438199
1372.908651,-12287.418637,370.102971,-459.657299
1372.908977,-11177.109724,1184.329507,-459.657299
1372.909302,-9474.636058,370.102971,-1532.190996
1372.909628,-7920.203579,-1110.308913,-1608.800546
1372.909954,-6661.853478,-1776.494261,-919.314598
1372.910279,-4811.338623,-1776.494261,229.828649
1372.910605,-3330.926739,-1332.370696,1225.752797
1372.910930,-4441.235652,-1480.411884,1608.800546
1372.911256,-6217.729913,-1036.288319,766.095498
1372.911581,-6587.832884,-1184.329507,-306.438199
1372.911907,-8512.368333,444.123565,0.000000
1372.912233,-11177.109724,1406.391290,612.876398
1372.912558,-13471.748144,2220.617826,1838.629195
1372.912884,-14656.077652,1776.494261,612.876398
1372.913209,-12805.562797,888.247130,0.000000
1372.913535,-12361.439231,370.102971,-306.438199
1372.913860,-12361.439231,222.061783,76.609550
1372.914186,-11473.192101,962.267725,-995.924147
1372.914512,-10658.965565,814.226536,-995.924147
1372.914837,-9326.594869,74.020594,-1608.800546
1372.915163,-7846.182985,-1036.288319,-1302.362347
1372.915488,-5921.647536,-1258.350101,-612.876398
1372.915814,-4293.194464,-1036.288319,919.314598
1372.916139,-4811.338623,-296.082377,1685.410096
1372.916465,-5921.647536,-1036.288319,1149.143247
1372.916791,-6809.894666,-518.144159,0.000000
1372.917116,-7772.162391,-222.061783,0.000000
1372.917442,-10066.800811,888.247130,1455.581446
1372.917767,-13101.645173,2146.597232,1762.019645
1372.918093,-14508.036463,1702.473667,2221.676944
1372.918418,-13175.665768,1258.350101,229.828649
1372.918744,-12139.377449,222.061783,-306.438199
1372.919070,-11325.150913,222.061783,-612.876398
1372.919395,-11473.192101,1036.288319,-1455.581446
1372.919721,-10584.944971,1110.308913,-1302.362347
1372.920046,-8956.491898,518.144159,-1762.019645
1372.920372,-8660.409521,-1036.288319,-1302.362347
1372.920697,-7402.059420,-1628.453072,-689.485948
1372.921023,-4737.318029,-814.226536,459.657299
1372.921349,-4663.297435,-666.185348,1762.019645
1372.921674,-5625.565159,-1406.391290,2374.896044
1372.922000,-6587.832884,-1406.391290,919.314598
1372.922325,-6957.935855,-888.247130,0.000000
1372.922651,-8512.368333,666.185348,306.438199
1372.922976,-11843.295072,1776.494261,919.314598
1372.923302,-13545.768739,2072.576638,689.485948
1372.923627,-13323.706956,1480.411884,0.000000
1372.923953,-12287.418637,296.082377,0.000000
1372.924279,-11991.336260,0.000000,76.609550
1372.924604,-12065.356855,370.102971,-689.485948
1372.924930,-11103.089130,1258.350101,-612.876398
1372.925255,-10214.842000,888.247130,-1225.752797
1372.925581,-8734.430116,-666.185348,-1991.848295
1372.925906,-7550.100608,-1702.473667,-1608.800546
1372.926232,-6513.812290,-1480.411884,-229.828649
1372.926558,-4737.318029,-222.061783,1455.581446
1372.926883,-5699.585753,-740.205942,2451.505594
1372.927209,-7179.997637,-666.185348,1149.143247
1372.927534,-6883.915261,-740.205942,229.828649
1372.927860,-7846.182985,0.000000,612.876398
1372.928185,-10510.924376,1850.514855,689.485948
1372.928511,-13101.645173,2442.679609,1378.971896
1372.928837,-14656.077652,1776.494261,689.485948
1372.929162,-13767.830521,1036.288319,153.219100
1372.929488,-12139.377449,148.041188,306.438199
1372.929813,-12139.377449,148.041188,-229.828649
1372.930139,-11399.171507,740.205942,-995.924147
1372.930464,-10066.800811,888.247130,-689.485948
1372.930790,-8660.409521,-148.041188,-2068.457845
1372.931116,-7105.977043,-1406.391290,-2221.676944
1372.931441,-6365.771101,-1702.473667,-766.095498
1372.931767,-5477.523971,-1258.350101,1149.143247
1372.932092,-4663.297435,-666.185348,2451.505594
1372.932418,-6513.812290,-1332.370696,2221.676944
1372.932743,-6439.791695,-1184.329507,0.000000
1372.933069,-6513.812290,-814.226536,0.000000
1372.933395,-9030.512492,962.267725,153.219100
1372.933720,-12657.521608,1850.514855,1302.362347
1372.934046,-14137.933492,2442.679609,995.924147
1372.934371,-13841.851115,1480.411884,919.314598
1372.934697,-12287.418637,666.185348,0.000000
1372.935022,-12139.377449,370.102971,612.876398
1372.935348,-12139.377449,444.123565,-383.047749
1372.935674,-10214.842000,1258.350101,-1225.752797
1372.935999,-9252.574275,740.205942,-1685.410096
1372.936325,-7994.224174,-740.205942,-2374.896044
1372.936650,-7476.080014,-1258.350101,-1532.190996
1372.936976,-6365.771101,-666.185348,536.266849
1372.937301,-5107.421000,-296.082377,1149.143247
1372.937627,-5551.544565,-518.144159,2221.676944
1372.937953,-7105.977043,-814.226536,766.095498
1372.938278,-6513.812290,-592.164754,-153.219100
1372.938604,-8438.347739,296.082377,76.609550
1372.938929,-11917.315666,1406.391290,766.095498
1372.939255,-14211.954086,2294.638420,1608.800546
1372.939580,-14359.995275,1480.411884,1302.362347
1372.939906,-12213.398043,518.144159,-612.876398
1372.940232,-11843.295072,0.000000,0.000000
1372.940557,-12435.459826,222.061783,-612.876398
1372.940883,-10732.986159,1110.308913,-1915.238745
1372.941208,-8956.491898,518.144159,-1225.752797
1372.941534,-8734.430116,-740.205942,-1608.800546
1372.941859,-7846.182985,-1554.432478,-1378.971896
1372.942185,-6809.894666,-1702.473667,153.219100
1372.942511,-4885.359217,-962.267725,842.705048
1372.942836,-4959.379811,-666.185348,2145.067394
1372.943162,-6809.894666,-1258.350101,1072.533697
1372.943487,-6587.832884,-1258.350101,-459.657299
1372.943813,-7550.100608,74.020594,306.438199
1372.944138,-11029.068536,1258.350101,919.314598
1372.944464,-13471.748144,2368.659014,1302.362347
1372.944789,-14730.098246,1850.514855,919.314598
1372.945115,-13545.768739,1554.432478,383.047749
1372.945441,-12213.398043,370.102971,-229.828649
1372.945766,-12065.356855,148.041188,-383.047749
1372.946092,-10955.047942,666.185348,-1072.533697
1372.946417,-9696.697840,1406.391290,-383.047749
1372.946743,-9400.615463,296.082377,-1072.533697
1372.947068,-7994.224174,-1110.308913,-1838.629195
1372.947394,-7624.121203,-814.226536,-459.657299
1372.947720,-5921.647536,-740.205942,536.266849
1372.948045,-4071.132681,-666.185348,1455.581446
1372.948371,-4885.359217,-1184.329507,2221.676944
1372.948696,-6661.853478,-962.267725,689.485948
1372.949022,-7105.977043,-370.102971,766.095498
1372.949347,-8956.491898,740.205942,1149.143247
1372.949673,-12657.521608,1628.453072,1072.533697
1372.949999,-14730.098246,2368.659014,1532.190996
1372.950324,-14359.995275,1332.370696,459.657299
1372.950650,-12583.501014,740.205942,-766.095498
1372.950975,-11843.295072,296.082377,-383.047749
1372.951301,-11399.171507,148.041188,-536.266849
1372.951626,-9548.656652,888.247130,-1685.410096
1372.951952,-8808.450710,370.102971,-1225.752797
1372.952278,-8956.491898,-740.205942,-1378.971896
1372.952603,-8512.368333,-1258.350101,-1685.410096
1372.952929,-7179.997637,-1258.350101,229.828649
1372.953254,-5477.523971,-962.267725,1302.362347
1372.953580,-4293.194464,-1406.391290,2145.067394
1372.953905,-5773.606348,-1776.494261,1302.362347
1372.954231,-6069.688724,-1406.391290,0.000000
1372.954557,-8142.265362,0.000000,229.828649
1372.954882,-11177.109724,1480.411884,842.705048
1372.955208,-14063.912898,2368.659014,919.314598
1372.955533,-14582.057057,2146.597232,1072.533697
1372.955859,-13841.851115,1480.411884,0.000000
1372.956184,-12139.377449,370.102971,-612.876398
1372.956510,-11399.171507,74.020594,0.000000
1372.956836,-10510.924376,740.205942,-1225.752797
1372.957161,-9400.615463,666.185348,-536.266849
1372.957487,-9474.636058,148.041188,-1378.971896
1372.957812,-9178.553681,-518.144159,-1762.019645
1372.958138,-7994.224174,-740.205942,-995.924147
1372.958463,-5995.668130,-592.164754,229.828649
1372.958789,-4589.276840,-962.267725,1762.019645
1372.959115,-4885.359217,-1480.411884,1762.019645
1372.959440,-6291.750507,-1184.329507,1455.581446
1372.959766,-7698.141797,-740.205942,612.876398
1372.960091,-9622.677246,592.164754,229.828649
1372.960417,-12583.501014,1850.514855,842.705048
1372.960742,-14063.912898,2294.638420,842.705048
1372.961068,-13471.748144,1332.370696,0.000000
1372.961394,-13027.624579,296.082377,0.000000
1372.961719,-12139.377449,0.000000,-459.657299
1372.962045,-11621.233289,296.082377,-612.876398
1372.962370,-10584.944971,296.082377,-919.314598
1372.962696,-9696.697840,370.102971,-1915.238745
1372.963021,-8956.491898,-888.247130,-1532.190996
1372.963347,-7920.203579,-1110.308913,-1608.800546
1372.963672,-5773.606348,-1480.411884,0.000000
1372.963998,-5255.462188,-444.123565,1608.800546
1372.964324,-4737.318029,-1110.308913,1532.190996
1372.964649,-5033.400406,-1184.329507,612.876398
1372.964975,-6809.894666,-740.205942,0.000000
1372.965300,-8882.471304,296.082377,0.000000
1372.965626,-11473.192101,1850.514855,766.095498
1372.965951,-13545.768739,2220.617826,1915.238745
1372.966277,-14211.954086,1924.535449,1838.629195
1372.966603,-13249.686362,518.144159,1072.533697
1372.966928,-12213.398043,0.000000,-306.438199
1372.967254,-11473.192101,592.164754,-919.314598
1372.967579,-10955.047942,962.267725,-383.047749
1372.967905,-9696.697840,888.247130,-1302.362347
1372.968230,-8882.471304,148.041188,-919.314598
1372.968556,-8438.347739,-444.123565,-1072.533697
1372.968882,-6513.812290,-814.226536,-536.266849
1372.969207,-4589.276840,-740.205942,919.314598
1372.969533,-3627.009116,-740.205942,612.876398
1372.969858,-5255.462188,-1110.308913,1608.800546
1372.970184,-6439.791695,-1036.288319,536.266849
1372.970509,-7920.203579,0.000000,-153.219100
1372.970835,-10510.924376,1036.288319,919.314598
1372.971160,-13397.727550,1702.473667,1838.629195
1372.971486,-14434.015869,1776.494261,1378.971896
1372.971811,-13693.809927,1332.370696,306.438199
1372.972137,-12435.459826,0.000000,-153.219100
1372.972462,-11251.130318,148.041188,-689.485948
1372.972788,-10881.027347,222.061783,-919.314598
1372.973114,-10584.944971,888.247130,-1378.971896
1372.973439,-9918.759623,0.000000,-1608.800546
1372.973765,-8882.471304,-518.144159,-1608.800546
1372.974090,-7328.038826,-1258.350101,-1378.971896
1372.974416,-5181.441594,-1332.370696,0.000000
1372.974741,-4367.215058,-1184.329507,1378.971896
1372.975067,-4145.153275,-1628.453072,1149.143247
1372.975392,-5033.400406,-1480.411884,76.609550
1372.975718,-7031.956449,-666.185348,-229.828649
1372.976043,-9696.697840,666.185348,459.657299
1372.976369,-12953.603985,1406.391290,2145.067394
1372.976694,-14730.098246,2294.638420,1838.629195
1372.977020,-14359.995275,1406.391290,1685.410096
1372.977345,-12953.603985,444.123565,459.657299
1372.977671,-11843.295072,0.000000,-306.438199
1372.977997,-11399.171507,296.082377,-766.095498
1372.978322,-10584.944971,666.185348,-766.095498
1372.978648,-10066.800811,962.267725,-1149.143247
1372.978973,-9178.553681,-148.041188,-842.705048
1372.979299,-7846.182985,-592.164754,-919.314598
1372.979624,-6439.791695,-1258.350101,0.000000
1372.979950,-4071.132681,-1110.308913,995.924147
1372.980275,-3627.009116,-1258.350101,842.705048
1372.980601,-4589.276840,-1184.329507,612.876398
1372.980926,-6143.709319,-888.247130,612.876398
1372.981252,-8512.368333,296.082377,536.266849
1372.981577,-11843.295072,1480.411884,1149.143247
1372.981903,-14063.912898,2442.679609,1455.581446
1372.982228,-14730.098246,2072.576638,766.095498
1372.982554,-13619.789333,1036.288319,76.609550
1372.982880,-11843.295072,0.000000,-76.609550
1372.983205,-11029.068536,0.000000,-536.266849
1372.983531,-10955.047942,592.164754,-919.314598
1372.983856,-10288.862594,592.164754,-1225.752797
1372.984182,-9474.636058,0.000000,-1532.190996
1372.984507,-9030.512492,-814.226536,-1455.581446
1372.984833,-7254.018232,-888.247130,-995.924147
1372.985158,-5107.421000,-1036.288319,306.438199
1372.985484,-3923.091493,-1406.391290,689.485948
1372.985809,-3997.112087,-1554.432478,689.485948
1372.986135,-4589.276840,-1850.514855,536.266849
1372.986460,-7105.977043,-592.164754,229.828649
1372.986786,-10066.800811,740.205942,842.705048
1372.987111,-13471.748144,2146.597232,1532.190996
1372.987437,-14878.139434,1998.556043,995.924147
1372.987763,-13915.871710,1406.391290,536.266849
1372.988088,-12805.562797,148.041188,0.000000
1372.988414,-11029.068536,370.102971,-383.047749
1372.988739,-10436.903782,296.082377,-612.876398
1372.989065,-10288.862594,962.267725,-919.314598
1372.989390,-9770.718434,888.247130,-1532.190996
1372.989716,-10066.800811,74.020594,-1225.752797
1372.990041,-9326.594869,-296.082377,-1532.190996
1372.990367,-6513.812290,-888.247130,0.000000
1372.990692,-4737.318029,-740.205942,1378.971896
1372.991018,-4367.215058,-1554.432478,1685.410096
1372.991343,-4737.318029,-1406.391290,1225.752797
1372.991669,-6513.812290,-888.247130,766.095498
1372.991994,-8808.450710,518.144159,689.485948
1372.992320,-12287.418637,1850.514855,995.924147
1372.992646,-14063.912898,2220.617826,612.876398
1372.992971,-14211.954086,1628.453072,76.609550
1372.993297,-12953.603985,518.144159,0.000000
1372.993622,-11769.274478,0.000000,0.000000
1372.993948,-10955.047942,0.000000,0.000000
1372.994273,-10881.027347,444.123565,-536.266849
1372.994599,-10214.842000,370.102971,-1225.752797
1372.994924,-9326.594869,-296.082377,-2221.676944
1372.995250,-8512.368333,-740.205942,-1915.238745
1372.995575,-7179.997637,-814.226536,-842.705048
1372.995901,-5255.462188,-740.205942,459.657299
1372.996226,-4885.359217,-888.247130,1149.143247
1372.996552,-5699.585753,-1406.391290,1225.752797
1372.996878,-6217.729913,-1184.329507,229.828649
1372.997203,-7624.121203,0.000000,0.000000
1372.997529,-10807.006753,1036.288319,689.485948
1372.997854,-12953.603985,1628.453072,766.095498
1372.998180,-14211.954086,1702.473667,689.485948
1372.998505,-13027.624579,1184.329507,536.266849
1372.998831,-12805.562797,444.123565,153.219100
1372.999156,-11991.336260,148.041188,-306.438199
1372.999482,-11029.068536,518.144159,-383.047749
1372.999807,-9918.759623,888.247130,-689.485948
1373.000133,-8882.471304,0.000000,-1302.362347
1373.000458,-7994.224174,-666.185348,-2145.067394
1373.000784,-7179.997637,-518.144159,-1225.752797
1373.001109,-5773.606348,-370.102971,306.438199
1373.001435,-4589.276840,-148.041188,995.924147
1373.001761,-5625.565159,-888.247130,1378.971896
1373.002086,-6069.688724,-666.185348,689.485948
1373.002412,-7179.997637,74.020594,306.438199
1373.002737,-9770.718434,814.226536,612.876398
1373.003063,-12361.439231,2146.597232,383.047749
1373.003388,-14211.954086,2294.638420,1072.533697
1373.003714,-13767.830521,1480.411884,459.657299
1373.004039,-12731.542202,296.082377,459.657299
1373.004365,-11695.253884,0.000000,306.438199
1373.004690,-11029.068536,0.000000,0.000000
1373.005016,-9844.739029,518.144159,-536.266849
1373.005341,-9030.512492,296.082377,-1762.019645
1373.005667,-8586.388927,-592.164754,-1991.848295
1373.005992,-7846.182985,-1036.288319,-1225.752797
1373.006318,-6143.709319,-1036.288319,-536.266849
1373.006644,-4589.276840,-962.267725,1149.143247
1373.006969,-4663.297435,-1258.350101,1685.410096
1373.007295,-5403.503377,-1776.494261,612.876398
1373.007620,-6143.709319,-888.247130,-689.485948
1373.007946,-9400.615463,296.082377,306.438199
1373.008271,-12361.439231,1258.350101,612.876398
1373.008597,-14063.912898,2146.597232,1378.971896
1373.008922,-14508.036463,1480.411884,1378.971896
1373.009248,-13175.665768,740.205942,459.657299
1373.009573,-11695.253884,0.000000,0.000000
1373.009899,-11621.233289,0.000000,-612.876398
1373.010224,-9622.677246,814.226536,-1225.752797
1373.010550,-9104.533087,740.205942,-1608.800546
1373.010875,-9622.677246,0.000000,-1532.190996
1373.011201,-8142.265362,-444.123565,-1072.533697
1373.011527,-7550.100608,-666.185348,229.828649
1373.011852,-5329.482782,-666.185348,612.876398
1373.012178,-4071.132681,-740.205942,1302.362347
1373.012503,-5403.503377,-1332.370696,919.314598
1373.012829,-5773.606348,-962.267725,-153.219100
1373.013154,-7179.997637,-222.061783,383.047749
1373.013480,-10955.047942,1332.370696,842.705048
1373.013805,-14211.954086,2368.659014,1455.581446
1373.014131,-14656.077652,2072.576638,1378.971896
1373.014456,-13841.851115,1702.473667,0.000000
1373.014782,-12435.459826,370.102971,-689.485948
1373.015107,-11621.233289,74.020594,-459.657299
1373.015433,-9918.759623,222.061783,-766.095498
1373.015758,-8956.491898,444.123565,-1149.143247
1373.016084,-9178.553681,0.000000,-842.705048
1373.016410,-9104.533087,-740.205942,-1608.800546
1373.016735,-8068.244768,-518.144159,-1302.362347
1373.017061,-6217.729913,-1110.308913,153.219100
1373.017386,-4441.235652,-888.247130,612.876398
1373.017712,-4515.256246,-1702.473667,1762.019645
1373.018037,-5255.462188,-1406.391290,612.876398
1373.018363,-6217.729913,-814.226536,536.266849
1373.018688,-9104.533087,666.185348,536.266849
1373.019014,-12731.542202,2072.576638,995.924147
1373.019339,-14434.015869,2516.700203,995.924147
1373.019665,-14804.118840,1998.556043,919.314598
1373.019990,-13101.645173,888.247130,-306.438199
1373.020316,-11843.295072,222.061783,-76.609550
1373.020641,-11177.109724,148.041188,-306.438199
1373.020967,-9178.553681,296.082377,-229.828649
1373.021293,-8586.388927,370.102971,-459.657299
1373.021618,-9178.553681,-444.123565,-1455.581446
1373.021944,-8290.306550,0.000000,-689.485948
1373.022269,-7846.182985,-370.102971,0.000000
1373.022595,-5625.565159,0.000000,612.876398
1373.022920,-4589.276840,-740.205942,689.485948
1373.023246,-5255.462188,-1258.350101,1225.752797
1373.023571,-5699.585753,-1406.391290,689.485948
1373.023897,-7846.182985,0.000000,1149.143247
1373.024222,-11399.171507,1332.370696,1225.752797
1373.024548,-13841.851115,2072.576638,1302.362347
1373.024873,-15026.180623,1850.514855,766.095498
1373.025199,-13397.727550,1480.411884,-536.266849
1373.025525,-12065.356855,0.000000,-766.095498
1373.025850,-11399.171507,0.000000,-612.876398
1373.026176,-9326.594869,444.123565,-919.314598
1373.026501,-9326.594869,222.061783,-766.095498
1373.026827,-9844.739029,-370.102971,-1762.019645
1373.027152,-9178.553681,-814.226536,-2068.457845
1373.027478,-7698.141797,-444.123565,-995.924147
1373.027803,-5551.544565,-962.267725,153.219100
1373.028129,-4663.297435,-1110.308913,1685.410096
1373.028454,-4811.338623,-1480.411884,1302.362347
1373.028780,-5255.462188,-1406.391290,766.095498
1373.029105,-6957.935855,-74.020594,383.047749
1373.029431,-10807.006753,1184.329507,383.047749
1373.029756,-13323.706956,2072.576638,383.047749
1373.030082,-14211.954086,2294.638420,919.314598
1373.030408,-13841.851115,2294.638420,1072.533697
1373.030733,-12953.603985,518.144159,459.657299
1373.031059,-12805.562797,74.020594,536.266849
1373.031384,-11547.212695,518.144159,0.000000
1373.031710,-9696.697840,444.123565,-306.438199
1373.032035,-9696.697840,296.082377,-1072.533697
1373.032361,-8586.388927,-444.123565,-2298.286494
1373.032686,-7772.162391,-148.041188,-995.924147
1373.033012,-6069.688724,-518.144159,229.828649
1373.033337,-4219.173869,-296.082377,766.095498
1373.033663,-5181.441594,-1110.308913,1685.410096
1373.033988,-6513.812290,-1036.288319,229.828649
1373.034314,-5847.626942,-370.102971,612.876398
1373.034639,-8068.244768,222.061783,306.438199
1373.034965,-11991.336260,1184.329507,842.705048
1373.035291,-13767.830521,1776.494261,1685.410096
1373.035616,-14137.933492,1702.473667,842.705048
1373.035942,-12879.583391,1036.288319,-459.657299
1373.036267,-12287.418637,0.000000,0.000000
1373.036593,-12139.377449,-592.164754,-306.438199
1373.036918,-9918.759623,370.102971,-842.705048
1373.037244,-9178.553681,592.164754,-612.876398
1373.037569,-8660.409521,-518.144159,-1838.629195
1373.037895,-7698.141797,-962.267725,-1991.848295
1373.038220,-6439.791695,-1184.329507,-383.047749
1373.038546,-4885.359217,-814.226536,459.657299
1373.038871,-4071.132681,-1406.391290,919.314598
1373.039197,-5403.503377,-1702.473667,919.314598
1373.039522,-6217.729913,-1332.370696,306.438199
1373.039848,-7402.059420,0.000000,153.219100
1373.040174,-10584.944971,1036.288319,76.609550
1373.040499,-13767.830521,2146.597232,689.485948
1373.040825,-15026.180623,1850.514855,1378.971896
1373.041150,-13767.830521,1628.453072,536.266849
1373.041476,-12879.583391,444.123565,229.828649
1373.041801,-12583.501014,370.102971,153.219100
1373.042127,-10955.047942,740.205942,-459.657299
1373.042452,-9400.615463,518.144159,-1225.752797
1373.042778,-9030.512492,592.164754,-1991.848295
1373.043103,-9030.512492,0.000000,-1685.410096
1373.043429,-7772.162391,-666.185348,-995.924147
1373.043754,-5625.565159,-518.144159,76.609550
1373.044080,-4589.276840,-666.185348,1838.629195
1373.044405,-5551.544565,-962.267725,1455.581446
1373.044731,-5921.647536,-1332.370696,995.924147
1373.045057,-6291.750507,-888.247130,383.047749
1373.045382,-9178.553681,444.123565,766.095498
1373.045708,-12879.583391,1628.453072,1378.971896
1373.046033,-14582.057057,2368.659014,1455.581446
1373.046359,-14211.954086,1776.494261,459.657299
1373.046684,-13249.686362,592.164754,-306.438199
1373.047010,-11991.336260,-296.082377,-919.314598
1373.047335,-10955.047942,0.000000,-536.266849
1373.047661,-9474.636058,148.041188,-1378.971896
1373.047986,-8068.244768,74.020594,-1302.362347
1373.048312,-7994.224174,-1184.329507,-1532.190996
1373.048637,-7846.182985,-1110.308913,-1532.190996
1373.048963,-6365.771101,-1184.329507,0.000000
1373.049288,-5403.503377,-222.061783,536.266849
1373.049614,-4737.318029,-1184.329507,1149.143247
1373.049940,-5625.565159,-1628.453072,459.657299
1373.050265,-6069.688724,-592.164754,153.219100
1373.050591,-7328.038826,74.020594,536.266849
1373.050916,-11399.171507,1628.453072,1378.971896
1373.051242,-14878.139434,2664.741391,1455.581446
1373.051567,-14952.160028,2146.597232,766.095498
1373.051893,-13989.892304,1924.535449,-306.438199
1373.052218,-13397.727550,666.185348,-612.876398
1373.052544,-11991.336260,74.020594,76.609550
1373.052869,-9992.780217,518.144159,76.609550
1373.053195,-8734.430116,592.164754,-536.266849
1373.053520,-7846.182985,-444.123565,-1762.019645
1373.053846,-8290.306550,-592.164754,-1455.581446
1373.054172,-7550.100608,-370.102971,-995.924147
1373.054497,-5773.606348,222.061783,689.485948
1373.054823,-5255.462188,-370.102971,766.095498
1373.055148,-5329.482782,-1776.494261,1225.752797
1373.055474,-5847.626942,-1702.473667,1762.019645
1373.055799,-7254.018232,-814.226536,1532.190996
1373.056125,-9770.718434,814.226536,1378.971896
1373.056450,-13471.748144,2072.576638,1302.362347
1373.056776,-15322.262999,2294.638420,842.705048
1373.057101,-14285.974681,2072.576638,-306.438199
1373.057427,-13397.727550,666.185348,-1225.752797
1373.057752,-11843.295072,0.000000,-306.438199
1373.058078,-10732.986159,0.000000,-306.438199
1373.058403,-8882.471304,-222.061783,-689.485948
1373.058729,-8068.244768,-370.102971,-1455.581446
1373.059055,-8512.368333,-1258.350101,-1455.581446
1373.059380,-8068.244768,-740.205942,-1302.362347
1373.059706,-6735.874072,-740.205942,-383.047749
1373.060031,-5477.523971,-518.144159,1302.362347
1373.060357,-4663.297435,-1702.473667,1302.362347
1373.060682,-4811.338623,-1702.473667,612.876398
1373.061008,-5921.647536,-1258.350101,153.219100
1373.061333,-8808.450710,592.164754,306.438199
1373.061659,-12657.521608,2146.597232,689.485948
1373.061984,-14878.139434,2294.638420,459.657299
1373.062310,-14804.118840,2220.617826,459.657299
1373.062635,-13915.871710,1258.350101,76.609550
1373.062961,-13027.624579,592.164754,0.000000
1373.063286,-11991.336260,518.144159,0.000000
1373.063612,-9622.677246,444.123565,-842.705048
1373.063938,-8586.388927,444.123565,-1302.362347
1373.064263,-8364.327145,-370.102971,-1991.848295
1373.064589,-7624.121203,-222.061783,-1762.019645
1373.064914,-6513.812290,-444.123565,-536.266849
1373.065240,-5181.441594,-148.041188,766.095498
1373.065565,-5033.400406,-666.185348,1608.800546
1373.065891,-5847.626942,-592.164754,1149.143247
1373.066216,-5847.626942,-666.185348,689.485948
1373.066542,-7031.956449,0.000000,919.314598
1373.066867,-11029.068536,1258.350101,1149.143247
1373.067193,-13471.748144,1924.535449,1149.143247
1373.067518,-14508.036463,1628.453072,919.314598
1373.067844,-14137.933492,1554.432478,306.438199
1373.068169,-13249.686362,296.082377,153.219100
1373.068495,-13175.665768,0.000000,-459.657299
1373.068821,-11399.171507,0.000000,0.000000
1373.069146,-8882.471304,148.041188,-1149.143247
1373.069472,-7624.121203,-814.226536,-1608.800546
1373.069797,-7179.997637,-888.247130,-2604.724693
1373.070123,-6513.812290,-1036.288319,-1072.533697
1373.070448,-5181.441594,-592.164754,153.219100
1373.070774,-4811.338623,-740.205942,1225.752797
1373.071099,-6217.729913,-1184.329507,1225.752797
1373.071425,-6439.791695,-1406.391290,612.876398
1373.071750,-6513.812290,-814.226536,383.047749
1373.072076,-9326.594869,518.144159,383.047749
1373.072401,-12583.501014,1924.535449,536.266849
1373.072727,-14952.160028,1776.494261,459.657299
1373.073052,-13989.892304,2294.638420,919.314598
1373.073378,-13693.809927,814.226536,459.657299
1373.073704,-13693.809927,666.185348,76.609550
1373.074029,-12435.459826,296.082377,-459.657299
1373.074355,-9992.780217,962.267725,-383.047749
1373.074680,-7550.100608,0.000000,-1608.800546
1373.075006,-7179.997637,-1110.308913,-2451.505594
1373.075331,-7105.977043,-962.267725,-1608.800546
1373.075657,-5995.668130,-296.082377,-383.047749
1373.075982,-4737.318029,0.000000,1302.362347
1373.076308,-4811.338623,-740.205942,919.314598
1373.076633,-6069.688724,-1258.350101,1608.800546
1373.076959,-7179.997637,-666.185348,1378.971896
1373.077284,-7994.224174,666.185348,766.095498
1373.077610,-11177.109724,1776.494261,995.924147
1373.077935,-14804.118840,2368.659014,1685.410096
1373.078261,-15396.283594,1628.453072,1378.971896
1373.078587,-13619.789333,1628.453072,536.266849
1373.078912,-13175.665768,370.102971,-459.657299
1373.079238,-12435.459826,444.123565,-153.219100
1373.079563,-10510.924376,444.123565,-383.047749
1373.079889,-8142.265362,0.000000,-1762.019645
1373.080214,-7476.080014,-814.226536,-1915.238745
1373.080540,-7920.203579,-1332.370696,-1685.410096
1373.080865,-6365.771101,-1406.391290,-1072.533697
1373.081191,-5107.421000,-444.123565,842.705048
1373.081516,-4071.132681,-444.123565,1072.533697
1373.081842,-4959.379811,-1258.350101,383.047749
1373.082167,-5699.585753,-1480.411884,229.828649
1373.082493,-7772.162391,-370.102971,-306.438199
1373.082818,-10066.800811,1406.391290,1072.533697
1373.083144,-13619.789333,1998.556043,1455.581446
1373.083469,-14804.118840,1776.494261,919.314598
1373.083795,-14804.118840,1998.556043,919.314598
1373.084121,-14359.995275,1184.329507,-306.438199
1373.084446,-12361.439231,1036.288319,-306.438199
1373.084772,-11473.192101,592.164754,-383.047749
1373.085097,-9548.656652,444.123565,-1149.143247
1373.085423,-7179.997637,0.000000,-995.924147
1373.085748,-8068.244768,-518.144159,-612.876398
1373.086074,-7105.977043,-296.082377,-995.924147
1373.086399,-6291.750507,-370.102971,689.485948
1373.086725,-5995.668130,0.000000,919.314598
1373.087050,-5329.482782,-1406.391290,766.095498
1373.087376,-5403.503377,-1258.350101,919.314598
1373.087701,-6291.750507,-1110.308913,919.314598
1373.088027,-7920.203579,444.123565,1378.971896
1373.088352,-12287.418637,1554.432478,1915.238745
1373.088678,-15322.262999,1924.535449,1072.533697
1373.089004,-14878.139434,2072.576638,153.219100
1373.089329,-14582.057057,814.226536,-842.705048
1373.089655,-12805.562797,222.061783,-842.705048
1373.089980,-11695.253884,444.123565,-76.609550
1373.090306,-9326.594869,0.000000,-306.438199
1373.090631,-7031.956449,0.000000,-1378.971896
1373.090957,-7402.059420,-1036.288319,-1378.971896
1373.091282,-7698.141797,-1036.288319,-2298.286494
1373.091608,-6735.874072,-1184.329507,-766.095498
1373.091933,-6217.729913,-296.082377,1685.410096
1373.092259,-6365.771101,-666.185348,1608.800546
1373.092584,-5699.585753,-888.247130,1302.362347
1373.092910,-5699.585753,-1036.288319,459.657299
1373.093235,-7031.956449,-518.144159,383.047749
1373.093561,-10807.006753,962.267725,919.314598
1373.093886,-14359.995275,2294.638420,0.000000
1373.094212,-14656.077652,2368.659014,383.047749
1373.094538,-14434.015869,1554.432478,229.828649
1373.094863,-13989.892304,592.164754,383.047749
1373.095189,-13397.727550,444.123565,153.219100
1373.095514,-11695.253884,370.102971,76.609550
1373.095840,-8882.471304,518.144159,-1072.533697
1373.096165,-7031.956449,-444.123565,-2145.067394
1373.096491,-7254.018232,-814.226536,-2528.115143
1373.096816,-6957.935855,-962.267725,-2068.457845
1373.097142,-5921.647536,74.020594,689.485948
1373.097467,-5921.647536,0.000000,1915.238745
1373.097793,-6587.832884,-814.226536,995.924147
1373.098118,-6069.688724,-1628.453072,1608.800546
1373.098444,-6217.729913,-1036.288319,1378.971896
1373.098769,-8956.491898,518.144159,1532.190996
1373.099095,-12139.377449,1628.453072,1685.410096
1373.099421,-14434.015869,2072.576638,919.314598
1373.099746,-13767.830521,1554.432478,536.266849
1373.100072,-13323.706956,666.185348,612.876398
1373.100397,-13915.871710,444.123565,-76.609550
1373.100723,-12805.562797,518.144159,-536.266849
1373.101048,-9474.636058,148.041188,-229.828649
1373.101374,-7772.162391,-814.226536,-766.095498
1373.101699,-6439.791695,-1850.514855,-2681.334243
1373.102025,-6883.915261,-1480.411884,-1225.752797
1373.102350,-6291.750507,-962.267725,383.047749
1373.102676,-4663.297435,0.000000,1072.533697
1373.103001,-6291.750507,-444.123565,1762.019645
1373.103327,-7254.018232,-1258.350101,383.047749
1373.103652,-5625.565159,-962.267725,459.657299
1373.103978,-7179.997637,148.041188,229.828649
1373.104303,-11251.130318,1332.370696,459.657299
1373.104629,-13989.892304,2072.576638,1149.143247
1373.104955,-14878.139434,1924.535449,0.000000
1373.105280,-13175.665768,814.226536,153.219100
1373.105606,-13619.789333,1036.288319,1532.190996
1373.105931,-13841.851115,370.102971,153.219100
1373.106257,-10436.903782,962.267725,-383.047749
1373.106582,-8290.306550,518.144159,-1149.143247
1373.106908,-7105.977043,-740.205942,-2834.553343
1373.107233,-6587.832884,-1184.329507,-2681.334243
1373.107559,-7179.997637,-444.123565,-995.924147
1373.107884,-5403.503377,296.082377,689.485948
1373.108210,-5329.482782,0.000000,1915.238745
1373.108535,-6661.853478,-1702.473667,612.876398
1373.108861,-6069.688724,-1554.432478,229.828649
1373.109186,-6587.832884,-148.041188,1532.190996
1373.109512,-9696.697840,1184.329507,766.095498
1373.109838,-12731.542202,1850.514855,1149.143247
1373.110163,-15248.242405,1776.494261,842.705048
1373.110489,-13989.892304,1480.411884,0.000000
1373.110814,-13249.686362,888.247130,0.000000
1373.111140,-14137.933492,444.123565,76.609550
1373.111465,-11769.274478,370.102971,-306.438199
1373.111791,-8512.368333,148.041188,-383.047749
1373.112116,-7105.977043,-1258.350101,-1302.362347
1373.112442,-7031.956449,-1702.473667,-2374.896044
1373.112767,-7402.059420,-1406.391290,-689.485948
1373.113093,-6513.812290,-592.164754,612.876398
1373.113418,-4737.318029,-444.123565,1225.752797
1373.113744,-5773.606348,-1258.350101,1072.533697
1373.114069,-6439.791695,-1998.556043,-153.219100
1373.114395,-5477.523971,-1036.288319,-306.438199
1373.114720,-8216.285956,370.102971,995.924147
1373.115046,-12139.377449,1258.350101,689.485948
1373.115372,-14211.954086,2072.576638,459.657299
1373.115697,-14508.036463,1628.453072,459.657299
1373.116023,-14211.954086,1332.370696,-153.219100
1373.116348,-13915.871710,888.247130,229.828649
1373.116674,-13101.645173,518.144159,0.000000
1373.116999,-8808.450710,592.164754,-1149.143247
1373.117325,-6957.935855,0.000000,-459.657299
1373.117650,-6735.874072,-1628.453072,-2451.505594
1373.117976,-7105.977043,-888.247130,-1762.019645
1373.118301,-6735.874072,-148.041188,383.047749
1373.118627,-5995.668130,444.123565,1302.362347
1373.118952,-6587.832884,-222.061783,1532.190996
1373.119278,-7105.977043,-1036.288319,689.485948
1373.119603,-5773.606348,-1036.288319,306.438199
1373.119929,-6143.709319,444.123565,842.705048
1373.120255,-9992.780217,1036.288319,1072.533697
1373.120580,-13323.706956,1998.556043,1225.752797
1373.120906,-15322.262999,2146.597232,689.485948
1373.121231,-14211.954086,1702.473667,-689.485948
1373.121557,-14137.933492,888.247130,0.000000
1373.121882,-14730.098246,666.185348,459.657299
1373.122208,-10807.006753,518.144159,383.047749
1373.122533,-7179.997637,-148.041188,-383.047749
1373.122859,-6217.729913,-1850.514855,-1532.190996
1373.123184,-6587.832884,-1628.453072,-2451.505594
1373.123510,-7179.997637,-888.247130,-1378.971896
1373.123835,-5773.606348,0.000000,-229.828649
1373.124161,-5921.647536,-666.185348,1225.752797
1373.124486,-7402.059420,-1332.370696,1991.848295
1373.124812,-5625.565159,-1702.473667,612.876398
1373.125137,-4885.359217,-1110.308913,1225.752797
1373.125463,-8734.430116,370.102971,1532.190996
1373.125789,-12731.542202,1332.370696,766.095498
1373.126114,-14508.036463,1776.494261,459.657299
1373.126440,-14878.139434,1850.514855,-459.657299
1373.126765,-14285.974681,1480.411884,-459.657299
1373.127091,-14508.036463,666.185348,689.485948
1373.127416,-12731.542202,888.247130,0.000000
1373.127742,-9104.533087,370.102971,76.609550
1373.128067,-7402.059420,-444.123565,-1302.362347
1373.128393,-6957.935855,-1850.514855,-2834.553343
1373.128718,-6661.853478,-962.267725,-1608.800546
1373.129044,-6809.894666,148.041188,76.609550
1373.129369,-5255.462188,0.000000,1608.800546
1373.129695,-6513.812290,-222.061783,1991.848295
1373.130020,-6957.935855,-962.267725,0.000000
1373.130346,-4959.379811,-740.205942,229.828649
1373.130672,-7550.100608,222.061783,842.705048
1373.130997,-11325.150913,1702.473667,766.095498
1373.131323,-13915.871710,2294.638420,1991.848295
1373.131648,-14952.160028,1850.514855,536.266849
1373.131974,-13767.830521,888.247130,-153.219100
1373.132299,-13915.871710,814.226536,1149.143247
1373.132625,-14211.954086,962.267725,76.609550
1373.132950,-10288.862594,888.247130,-995.924147
1373.133276,-7846.182985,-148.041188,-766.095498
1373.133601,-7105.977043,-1554.432478,-2451.505594
1373.133927,-6143.709319,-1406.391290,-2374.896044
1373.134252,-6883.915261,-962.267725,-459.657299
1373.134578,-5625.565159,0.000000,536.266849
1373.134903,-5403.503377,-296.082377,2145.067394
1373.135229,-7254.018232,-814.226536,306.438199
1373.135555,-4959.379811,-1110.308913,-306.438199
1373.135880,-6069.688724,-222.061783,995.924147
1373.136206,-10584.944971,1110.308913,1302.362347
