#time,accel_x,accel_y,accel_z
90.913588,-9474.636058,74.020594,0.000000
90.913914,-9474.636058,0.000000,383.047749
90.914240,-9474.636058,0.000000,76.609550
90.914566,-9474.636058,74.020594,0.000000
90.914893,-9252.574275,0.000000,229.828649
90.915219,-9400.615463,0.000000,76.609550
90.915545,-9474.636058,0.000000,0.000000
90.915872,-9252.574275,0.000000,0.000000
90.916198,-9178.553681,296.082377,0.000000
90.916524,-9696.697840,0.000000,76.609550
90.916850,-9474.636058,74.020594,0.000000
90.917177,-9696.697840,0.000000,0.000000
90.917503,-9326.594869,0.000000,0.000000
90.917829,-9178.553681,0.000000,612.876398
90.918156,-9326.594869,148.041188,229.828649
90.918482,-9400.615463,296.082377,0.000000
90.918808,-9474.636058,148.041188,306.438199
90.919134,-9178.553681,148.041188,0.000000
90.919461,-9474.636058,370.102971,0.000000
90.919787,-9326.594869,0.000000,229.828649
90.920113,-9400.615463,0.000000,0.000000
90.920440,-9548.656652,222.061783,0.000000
90.920766,-9400.615463,296.082377,0.000000
90.921092,-9474.636058,74.020594,0.000000
90.921419,-9178.553681,0.000000,0.000000
90.921745,-9474.636058,222.061783,153.219100
90.922071,-9474.636058,74.020594,229.828649
90.922397,-9326.594869,74.020594,153.219100
90.922724,-9252.574275,444.123565,0.000000
90.923050,-9474.636058,444.123565,0.000000
90.923376,-9474.636058,0.000000,229.828649
90.923703,-9548.656652,222.061783,229.828649
90.924029,-9400.615463,74.020594,229.828649
90.924355,-9400.615463,148.041188,0.000000
90.924681,-9474.636058,296.082377,-306.438199
90.925008,-9474.636058,0.000000,153.219100
90.925334,-9474.636058,0.000000,306.438199
90.925660,-9400.615463,74.020594,76.609550
90.925987,-9474.636058,222.061783,229.828649
90.926313,-9474.636058,0.000000,229.828649
90.926639,-9474.636058,0.000000,306.438199
90.926966,-9548.656652,0.000000,229.828649
90.927292,-9178.553681,74.020594,153.219100
90.927618,-9548.656652,0.000000,459.657299
90.927945,-9326.594869,0.000000,229.828649
90.928271,-9548.656652,0.000000,306.438199
90.928597,-9400.615463,0.000000,76.609550
90.928924,-9252.574275,0.000000,612.876398
90.929250,-9474.636058,148.041188,76.609550
90.929576,-9622.677246,148.041188,0.000000
90.929903,-9326.594869,0.000000,0.000000
90.930229,-9326.594869,0.000000,0.000000
90.930555,-9326.594869,0.000000,0.000000
90.930882,-9622.677246,74.020594,153.219100
90.931208,-9474.636058,74.020594,0.000000
90.931534,-9326.594869,0.000000,153.219100
90.931861,-9178.553681,74.020594,306.438199
90.932187,-9474.636058,0.000000,229.828649
90.932513,-9400.615463,0.000000,229.828649
90.932840,-9474.636058,0.000000,0.000000
90.933166,-9252.574275,0.000000,153.219100
90.933493,-9474.636058,222.061783,0.000000
90.933819,-9400.615463,-148.041188,0.000000
90.934145,-9474.636058,296.082377,0.000000
90.934472,-9326.594869,74.020594,153.219100
90.934798,-9474.636058,0.000000,459.657299
90.935124,-9326.594869,0.000000,229.828649
90.935451,-9548.656652,0.000000,306.438199
90.935777,-9474.636058,518.144159,76.609550
90.936103,-9474.636058,74.020594,459.657299
90.936430,-9400.615463,74.020594,153.219100
90.936756,-9326.594869,0.000000,153.219100
90.937082,-9400.615463,370.102971,-76.609550
90.937409,-9030.512492,222.061783,-306.438199
90.937735,-9474.636058,296.082377,0.000000
90.938061,-9474.636058,296.082377,0.000000
90.938388,-9474.636058,0.000000,536.266849
90.938714,-9474.636058,74.020594,153.219100
90.939040,-8956.491898,74.020594,229.828649
90.939367,-9474.636058,148.041188,306.438199
90.939693,-9474.636058,-148.041188,0.000000
90.940019,-9474.636058,-74.020594,153.219100
90.940346,-9696.697840,296.082377,383.047749
90.940672,-9474.636058,370.102971,-153.219100
90.940998,-9104.533087,0.000000,229.828649
90.941325,-9252.574275,0.000000,306.438199
90.941651,-9326.594869,74.020594,536.266849
90.941977,-9400.615463,0.000000,76.609550
90.942304,-9548.656652,0.000000,0.000000
90.942630,-9622.677246,148.041188,0.000000
90.942956,-9474.636058,74.020594,0.000000
90.943283,-9252.574275,0.000000,0.000000
90.943609,-9400.615463,74.020594,0.000000
90.943935,-9400.615463,0.000000,76.609550
90.944262,-9548.656652,74.020594,0.000000
90.944588,-9178.553681,74.020594,-306.438199
90.944914,-9548.656652,0.000000,0.000000
90.945241,-9326.594869,0.000000,153.219100
90.945567,-9178.553681,0.000000,153.219100
90.945893,-9622.677246,148.041188,0.000000
90.946220,-9326.594869,0.000000,229.828649
90.946546,-9400.615463,0.000000,153.219100
90.946873,-9178.553681,0.000000,76.609550
90.947199,-9400.615463,0.000000,0.000000
90.947525,-9474.636058,0.000000,0.000000
90.947852,-9474.636058,74.020594,153.219100
90.948178,-9474.636058,0.000000,76.609550
90.948504,-9400.615463,74.020594,229.828649
90.948831,-9548.656652,222.061783,306.438199
90.949157,-9474.636058,148.041188,76.609550
90.949483,-9548.656652,0.000000,0.000000
90.949810,-9474.636058,222.061783,0.000000
90.950136,-9252.574275,148.041188,0.000000
90.950462,-9474.636058,592.164754,-383.047749
90.950789,-9696.697840,296.082377,-306.438199
90.951115,-9548.656652,74.020594,0.000000
90.951441,-9252.574275,222.061783,0.000000
90.951768,-9252.574275,444.123565,76.609550
90.952094,-9252.574275,370.102971,229.828649
90.952420,-9326.594869,74.020594,306.438199
90.952747,-9178.553681,222.061783,0.000000
90.953073,-9326.594869,444.123565,306.438199
90.953399,-9400.615463,74.020594,0.000000
90.953726,-9474.636058,74.020594,306.438199
90.954052,-9326.594869,74.020594,0.000000
90.954378,-9474.636058,222.061783,-76.609550
90.954705,-9474.636058,0.000000,76.609550
90.955031,-9400.615463,222.061783,76.609550
90.955357,-9474.636058,0.000000,153.219100
90.955684,-9548.656652,0.000000,0.000000
90.956010,-9400.615463,0.000000,459.657299
90.956336,-9548.656652,74.020594,0.000000
90.956663,-9400.615463,0.000000,229.828649
90.956989,-9474.636058,222.061783,229.828649
90.957315,-9326.594869,296.082377,0.000000
90.957642,-9474.636058,0.000000,153.219100
90.957968,-9548.656652,0.000000,0.000000
90.958294,-9474.636058,0.000000,153.219100
90.958621,-9474.636058,0.000000,153.219100
90.958947,-9400.615463,0.000000,383.047749
90.959273,-9548.656652,0.000000,153.219100
90.959600,-9548.656652,0.000000,0.000000
90.959926,-9474.636058,0.000000,0.000000
90.960253,-9474.636058,148.041188,-76.609550
90.960579,-9400.615463,-148.041188,0.000000
90.960905,-9474.636058,148.041188,383.047749
90.961232,-9474.636058,0.000000,612.876398
90.961558,-9252.574275,0.000000,229.828649
90.961884,-9844.739029,74.020594,76.609550
90.962211,-9474.636058,0.000000,306.438199
90.962537,-9696.697840,222.061783,0.000000
90.962863,-9474.636058,0.000000,536.266849
90.963190,-9474.636058,0.000000,229.828649
90.963516,-9252.574275,0.000000,459.657299
90.963842,-9252.574275,0.000000,0.000000
90.964169,-9474.636058,0.000000,0.000000
90.964495,-9400.615463,148.041188,0.000000
90.964821,-9474.636058,222.061783,0.000000
90.965148,-9326.594869,222.061783,76.609550
90.965474,-9030.512492,296.082377,306.438199
90.965800,-9474.636058,444.123565,612.876398
90.966127,-9400.615463,370.102971,0.000000
90.966453,-9400.615463,0.000000,0.000000
90.966779,-9400.615463,296.082377,-76.609550
90.967106,-9770.718434,0.000000,229.828649
90.967432,-9178.553681,222.061783,0.000000
90.967758,-9474.636058,74.020594,0.000000
90.968085,-9474.636058,0.000000,0.000000
90.968411,-9622.677246,222.061783,0.000000
90.968737,-9104.533087,0.000000,0.000000
90.969064,-9474.636058,0.000000,459.657299
90.969390,-9474.636058,296.082377,0.000000
90.969716,-9400.615463,296.082377,459.657299
90.970043,-9030.512492,74.020594,153.219100
90.970369,-9474.636058,222.061783,76.609550
90.970695,-9252.574275,0.000000,229.828649
90.971022,-9252.574275,148.041188,0.000000
90.971348,-9326.594869,370.102971,-459.657299
90.971674,-9326.594869,74.020594,306.438199
90.972001,-9178.553681,0.000000,229.828649
90.972327,-9326.594869,0.000000,0.000000
90.972653,-9400.615463,-296.082377,536.266849
90.972980,-9104.533087,148.041188,-306.438199
90.973306,-9326.594869,0.000000,229.828649
90.973632,-9326.594869,74.020594,0.000000
90.973959,-9474.636058,0.000000,0.000000
90.974285,-9474.636058,0.000000,0.000000
90.974612,-9548.656652,296.082377,0.000000
90.974938,-9474.636058,74.020594,0.000000
90.975264,-9252.574275,0.000000,76.609550
90.975591,-9622.677246,222.061783,76.609550
90.975917,-9400.615463,0.000000,0.000000
90.976243,-9252.574275,0.000000,0.000000
90.976570,-9474.636058,0.000000,76.609550
90.976896,-9400.615463,0.000000,0.000000
90.977222,-9400.615463,0.000000,612.876398
90.977549,-9622.677246,222.061783,0.000000
90.977875,-9622.677246,0.000000,459.657299
90.978201,-9400.615463,0.000000,383.047749
90.978528,-9252.574275,0.000000,536.266849
90.978854,-9252.574275,222.061783,0.000000
90.979180,-9474.636058,222.061783,0.000000
90.979507,-9474.636058,0.000000,153.219100
90.979833,-9622.677246,444.123565,-306.438199
90.980159,-9400.615463,0.000000,153.219100
90.980486,-9326.594869,0.000000,306.438199
90.980812,-9178.553681,0.000000,76.609550
90.981138,-9474.636058,74.020594,76.609550
90.981465,-9178.553681,296.082377,-459.657299
90.981791,-9400.615463,0.000000,229.828649
90.982117,-9474.636058,296.082377,0.000000
90.982444,-9400.615463,148.041188,0.000000
90.982770,-9252.574275,222.061783,76.609550
90.983096,-9696.697840,296.082377,0.000000
90.983423,-9252.574275,370.102971,0.000000
90.983749,-9474.636058,222.061783,76.609550
90.984075,-9474.636058,222.061783,306.438199
90.984402,-9400.615463,0.000000,0.000000
90.984728,-9474.636058,148.041188,306.438199
90.985054,-9326.594869,0.000000,306.438199
90.985381,-9474.636058,370.102971,153.219100
90.985707,-9622.677246,296.082377,-153.219100
90.986033,-9400.615463,148.041188,0.000000
90.986360,-9474.636058,370.102971,153.219100
90.986686,-9548.656652,222.061783,0.000000
90.987012,-9252.574275,74.020594,153.219100
90.987339,-9178.553681,-148.041188,0.000000
90.987665,-9400.615463,74.020594,0.000000
90.987992,-9400.615463,0.000000,306.438199
90.988318,-9696.697840,148.041188,0.000000
90.988644,-9030.512492,-222.061783,0.000000
90.988971,-9326.594869,148.041188,-383.047749
90.989297,-9400.615463,0.000000,0.000000
90.989623,-9400.615463,-296.082377,153.219100
90.989950,-9474.636058,0.000000,76.609550
90.990276,-9474.636058,0.000000,153.219100
90.990602,-9326.594869,74.020594,0.000000
90.990929,-9548.656652,0.000000,383.047749
90.991255,-9178.553681,-148.041188,76.609550
90.991581,-9178.553681,74.020594,383.047749
90.991908,-9400.615463,0.000000,76.609550
90.992234,-9474.636058,0.000000,76.609550
90.992560,-9474.636058,0.000000,153.219100
90.992887,-9474.636058,0.000000,383.047749
90.993213,-9474.636058,0.000000,-229.828649
90.993539,-9400.615463,0.000000,306.438199
90.993866,-9252.574275,0.000000,76.609550
90.994192,-9104.533087,0.000000,459.657299
90.994518,-9474.636058,74.020594,0.000000
90.994845,-9474.636058,148.041188,0.000000
90.995171,-9474.636058,0.000000,76.609550
90.995497,-9548.656652,296.082377,229.828649
90.995824,-9474.636058,148.041188,459.657299
90.996150,-9400.615463,148.041188,76.609550
90.996476,-9252.574275,0.000000,229.828649
90.996803,-9474.636058,74.020594,229.828649
90.997129,-9400.615463,592.164754,-306.438199
90.997455,-9548.656652,0.000000,229.828649
90.997782,-9326.594869,148.041188,153.219100
90.998108,-9326.594869,296.082377,0.000000
90.998434,-9400.615463,222.061783,306.438199
90.998761,-9474.636058,222.061783,153.219100
90.999087,-9474.636058,0.000000,0.000000
90.999413,-9622.677246,222.061783,0.000000
90.999740,-9104.533087,296.082377,0.000000
91.000066,-9326.594869,148.041188,153.219100
91.000392,-9400.615463,148.041188,229.828649
91.000719,-9474.636058,148.041188,383.047749
91.001045,-9326.594869,148.041188,229.828649
91.001372,-9622.677246,74.020594,229.828649
91.001698,-9252.574275,148.041188,0.000000
91.002024,-9474.636058,148.041188,0.000000
91.002351,-9474.636058,148.041188,-229.828649
91.002677,-8734.430116,0.000000,0.000000
91.003003,-9474.636058,74.020594,229.828649
91.003330,-9474.636058,74.020594,459.657299
91.003656,-9548.656652,222.061783,0.000000
91.003982,-9696.697840,0.000000,306.438199
91.004309,-9474.636058,0.000000,0.000000
91.004635,-9548.656652,0.000000,76.609550
91.004961,-9474.636058,74.020594,229.828649
91.005288,-9178.553681,0.000000,153.219100
91.005614,-9326.594869,0.000000,383.047749
91.005940,-9474.636058,74.020594,-229.828649
91.006267,-9474.636058,0.000000,0.000000
91.006593,-9326.594869,74.020594,153.219100
91.006919,-9104.533087,0.000000,0.000000
91.007246,-9548.656652,0.000000,229.828649
91.007572,-9474.636058,0.000000,0.000000
91.007898,-9474.636058,0.000000,0.000000
91.008225,-9252.574275,0.000000,76.609550
91.008551,-9252.574275,74.020594,0.000000
91.008877,-9474.636058,0.000000,306.438199
91.009204,-9326.594869,0.000000,229.828649
91.009530,-9474.636058,0.000000,153.219100
91.009856,-9252.574275,74.020594,153.219100
91.010183,-9770.718434,74.020594,-76.609550
91.010509,-9548.656652,0.000000,229.828649
91.010835,-9400.615463,0.000000,76.609550
91.011162,-9252.574275,74.020594,-306.438199
91.011488,-9400.615463,74.020594,76.609550
91.011814,-9326.594869,0.000000,0.000000
91.012141,-9474.636058,74.020594,153.219100
91.012467,-9474.636058,222.061783,0.000000
91.012793,-9252.574275,74.020594,459.657299
91.013120,-9252.574275,148.041188,0.000000
91.013446,-9178.553681,74.020594,76.609550
91.013772,-9474.636058,74.020594,0.000000
91.014099,-9474.636058,222.061783,383.047749
91.014425,-9474.636058,148.041188,76.609550
91.014752,-9622.677246,0.000000,-153.219100
91.015078,-9548.656652,370.102971,0.000000
91.015404,-9178.553681,148.041188,-229.828649
91.015731,-9844.739029,148.041188,0.000000
91.016057,-9474.636058,370.102971,76.609550
91.016383,-9548.656652,148.041188,383.047749
91.016710,-9400.615463,0.000000,0.000000
91.017036,-9474.636058,370.102971,153.219100
91.017362,-9474.636058,444.123565,0.000000
91.017689,-9548.656652,0.000000,229.828649
91.018015,-9474.636058,74.020594,-76.609550
91.018341,-8956.491898,0.000000,0.000000
91.018668,-9400.615463,296.082377,-229.828649
91.018994,-9622.677246,74.020594,76.609550
91.019320,-9474.636058,370.102971,-459.657299
91.019647,-9178.553681,148.041188,0.000000
91.019973,-9104.533087,222.061783,0.000000
91.020299,-9622.677246,-148.041188,229.828649
91.020626,-9474.636058,74.020594,229.828649
91.020952,-9622.677246,74.020594,153.219100
91.021278,-9474.636058,-370.102971,153.219100
91.021605,-9474.636058,0.000000,76.609550
91.021931,-9622.677246,148.041188,0.000000
91.022257,-9474.636058,0.000000,0.000000
91.022584,-8882.471304,0.000000,153.219100
91.022910,-9400.615463,0.000000,76.609550
91.023236,-9474.636058,0.000000,76.609550
91.023563,-9474.636058,74.020594,0.000000
91.023889,-9400.615463,0.000000,383.047749
91.024215,-9474.636058,0.000000,0.000000
91.024542,-9474.636058,0.000000,229.828649
91.024868,-9474.636058,0.000000,306.438199
91.025194,-9474.636058,148.041188,229.828649
91.025521,-9474.636058,296.082377,0.000000
91.025847,-9474.636058,74.020594,229.828649
91.026173,-9326.594869,0.000000,153.219100
91.026500,-9326.594869,74.020594,0.000000
91.026826,-9178.553681,74.020594,153.219100
91.027152,-9252.574275,148.041188,153.219100
91.027479,-9252.574275,296.082377,0.000000
91.027805,-9252.574275,0.000000,229.828649
91.028131,-9252.574275,148.041188,-229.828649
91.028458,-9326.594869,222.061783,0.000000
91.028784,-9400.615463,148.041188,153.219100
91.029110,-9326.594869,0.000000,229.828649
91.029437,-9326.594869,0.000000,229.828649
91.029763,-9474.636058,148.041188,383.047749
91.030089,-9474.636058,74.020594,0.000000
91.030416,-9474.636058,296.082377,-229.828649
91.030742,-9474.636058,444.123565,-383.047749
91.031068,-9252.574275,518.144159,-229.828649
91.031395,-9400.615463,148.041188,0.000000
91.031721,-9178.553681,74.020594,153.219100
91.032047,-9400.615463,370.102971,229.828649
91.032374,-9400.615463,222.061783,0.000000
91.032700,-9548.656652,148.041188,76.609550
91.033026,-9400.615463,74.020594,153.219100
91.033353,-9178.553681,148.041188,0.000000
91.033679,-9104.533087,0.000000,229.828649
91.034005,-8882.471304,0.000000,153.219100
91.034332,-9474.636058,0.000000,229.828649
91.034658,-9548.656652,148.041188,0.000000
91.034984,-9474.636058,0.000000,153.219100
91.035311,-9178.553681,0.000000,0.000000
91.035637,-9474.636058,0.000000,76.609550
91.035963,-9326.594869,0.000000,536.266849
91.036289,-9474.636058,0.000000,76.609550
91.036616,-9474.636058,0.000000,153.219100
91.036942,-9474.636058,0.000000,0.000000
91.037268,-9474.636058,0.000000,0.000000
91.037595,-9252.574275,-222.061783,229.828649
91.037921,-9474.636058,0.000000,229.828649
91.038247,-9030.512492,0.000000,306.438199
91.038574,-9474.636058,74.020594,0.000000
91.038900,-9178.553681,-296.082377,229.828649
91.039226,-9474.636058,0.000000,76.609550
91.039553,-9400.615463,74.020594,-383.047749
91.039879,-9252.574275,0.000000,459.657299
91.040205,-9400.615463,0.000000,76.609550
91.040532,-9252.574275,-148.041188,153.219100
91.040858,-9474.636058,0.000000,0.000000
91.041184,-9326.594869,296.082377,153.219100
91.041511,-9400.615463,0.000000,229.828649
91.041837,-9474.636058,444.123565,0.000000
91.042163,-9400.615463,74.020594,383.047749
91.042490,-9474.636058,74.020594,459.657299
91.042816,-9326.594869,0.000000,0.000000
91.043142,-9474.636058,74.020594,0.000000
91.043469,-9548.656652,148.041188,0.000000
91.043795,-9474.636058,0.000000,306.438199
91.044121,-9474.636058,0.000000,383.047749
91.044448,-9400.615463,74.020594,229.828649
91.044774,-9474.636058,222.061783,76.609550
91.045100,-9622.677246,74.020594,229.828649
91.045427,-9326.594869,444.123565,306.438199
91.045753,-9474.636058,74.020594,0.000000
91.046079,-9252.574275,74.020594,0.000000
91.046405,-9178.553681,222.061783,0.000000
91.046732,-9030.512492,518.144159,-536.266849
91.047058,-9400.615463,74.020594,229.828649
91.047384,-9326.594869,0.000000,0.000000
91.047711,-9548.656652,0.000000,0.000000
91.048037,-9474.636058,296.082377,-153.219100
91.048363,-9326.594869,148.041188,0.000000
91.048690,-9252.574275,74.020594,229.828649
91.049016,-9474.636058,222.061783,76.609550
91.049342,-9474.636058,0.000000,229.828649
91.049669,-9474.636058,0.000000,76.609550
91.049995,-9326.594869,74.020594,153.219100
91.050321,-9400.615463,0.000000,459.657299
91.050648,-9178.553681,222.061783,0.000000
91.050974,-9400.615463,74.020594,689.485948
91.051300,-9548.656652,0.000000,76.609550
91.051627,-9548.656652,74.020594,229.828649
91.051953,-9548.656652,148.041188,0.000000
91.052279,-9326.594869,0.000000,0.000000
91.052606,-9326.594869,0.000000,306.438199
91.052932,-9326.594869,0.000000,229.828649
91.053258,-9400.615463,0.000000,0.000000
91.053585,-9400.615463,148.041188,153.219100
91.053911,-9696.697840,-148.041188,-229.828649
91.054237,-9474.636058,0.000000,0.000000
91.054564,-9474.636058,222.061783,76.609550
91.054890,-9474.636058,0.000000,153.219100
91.055216,-9104.533087,0.000000,-229.828649
91.055543,-9474.636058,0.000000,0.000000
91.055869,-9548.656652,296.082377,0.000000
91.056195,-9474.636058,0.000000,0.000000
91.056521,-9474.636058,0.000000,0.000000
91.056848,-9622.677246,296.082377,0.000000
91.057174,-9474.636058,0.000000,153.219100
91.057500,-9474.636058,0.000000,612.876398
91.057827,-9400.615463,0.000000,536.266849
91.058153,-9400.615463,148.041188,229.828649
91.058479,-9474.636058,74.020594,229.828649
91.058806,-9696.697840,370.102971,0.000000
91.059132,-9622.677246,74.020594,0.000000
91.059458,-9326.594869,222.061783,0.000000
91.059785,-9400.615463,74.020594,153.219100
91.060111,-9474.636058,148.041188,76.609550
91.060437,-9178.553681,148.041188,153.219100
91.060764,-9400.615463,74.020594,153.219100
91.061090,-9474.636058,148.041188,229.828649
91.061416,-9252.574275,222.061783,76.609550
91.061743,-9622.677246,444.123565,-76.609550
91.062069,-9474.636058,0.000000,229.828649
91.062395,-9252.574275,370.102971,0.000000
91.062722,-9400.615463,222.061783,0.000000
91.063048,-9400.615463,74.020594,0.000000
91.063374,-9326.594869,0.000000,76.609550
91.063701,-9474.636058,0.000000,306.438199
91.064027,-9400.615463,370.102971,229.828649
91.064353,-9400.615463,0.000000,229.828649
91.064680,-9474.636058,148.041188,153.219100
91.065006,-9474.636058,74.020594,76.609550
91.065332,-9696.697840,0.000000,0.000000
91.065659,-9474.636058,296.082377,-229.828649
91.065985,-9474.636058,0.000000,0.000000
91.066311,-9400.615463,0.000000,153.219100
91.066637,-9326.594869,666.185348,153.219100
91.066964,-9474.636058,0.000000,153.219100
91.067290,-9548.656652,0.000000,0.000000
91.067616,-9400.615463,0.000000,-76.609550
91.067943,-9474.636058,0.000000,-612.876398
91.068269,-9548.656652,148.041188,229.828649
91.068595,-9178.553681,0.000000,306.438199
91.068922,-9696.697840,0.000000,76.609550
91.069248,-9400.615463,148.041188,0.000000
91.069574,-9400.615463,0.000000,-229.828649
91.069901,-9474.636058,74.020594,-306.438199
91.070227,-9474.636058,0.000000,-153.219100
91.070553,-9400.615463,0.000000,0.000000
91.070880,-9030.512492,-444.123565,459.657299
91.071206,-9326.594869,-74.020594,229.828649
91.071532,-9400.615463,0.000000,229.828649
91.071859,-9474.636058,0.000000,229.828649
91.072185,-9474.636058,74.020594,612.876398
91.072511,-9400.615463,0.000000,0.000000
91.072838,-9252.574275,148.041188,0.000000
91.073164,-9474.636058,0.000000,229.828649
91.073490,-9696.697840,74.020594,229.828649
91.073817,-9474.636058,222.061783,536.266849
91.074143,-9400.615463,148.041188,0.000000
91.074469,-9104.533087,0.000000,0.000000
91.074796,-9252.574275,0.000000,0.000000
91.075122,-9104.533087,148.041188,383.047749
91.075448,-9474.636058,148.041188,383.047749
91.075775,-9326.594869,148.041188,229.828649
91.076101,-9474.636058,222.061783,153.219100
91.076427,-9326.594869,222.061783,-229.828649
91.076753,-9474.636058,222.061783,0.000000
91.077080,-9548.656652,148.041188,229.828649
91.077406,-9252.574275,0.000000,536.266849
91.077732,-9252.574275,222.061783,306.438199
91.078059,-9104.533087,370.102971,459.657299
91.078385,-9474.636058,148.041188,76.609550
91.078711,-9696.697840,74.020594,76.609550
91.079038,-9474.636058,222.061783,76.609550
91.079364,-9104.533087,-148.041188,0.000000
91.079690,-9474.636058,296.082377,229.828649
91.080017,-9400.615463,74.020594,153.219100
91.080343,-9548.656652,0.000000,229.828649
91.080669,-9548.656652,222.061783,-153.219100
91.080996,-9622.677246,518.144159,0.000000
91.081322,-9474.636058,0.000000,0.000000
91.081648,-9252.574275,0.000000,229.828649
91.081975,-9252.574275,296.082377,0.000000
91.082301,-9030.512492,74.020594,229.828649
91.082627,-9400.615463,74.020594,0.000000
91.082954,-9474.636058,0.000000,0.000000
91.083280,-9326.594869,-148.041188,-153.219100
91.083606,-8660.409521,0.000000,0.000000
91.083933,-9326.594869,-148.041188,76.609550
91.084259,-9474.636058,0.000000,76.609550
91.084585,-9474.636058,0.000000,459.657299
91.084912,-9548.656652,0.000000,0.000000
91.085238,-9622.677246,0.000000,0.000000
91.085564,-9252.574275,0.000000,0.000000
91.085891,-9400.615463,74.020594,0.000000
91.086217,-9474.636058,0.000000,153.219100
91.086543,-9104.533087,370.102971,0.000000
91.086869,-9178.553681,148.041188,0.000000
91.087196,-9474.636058,0.000000,0.000000
91.087522,-9474.636058,296.082377,-383.047749
91.087848,-9326.594869,0.000000,383.047749
91.088175,-9252.574275,222.061783,0.000000
91.088501,-9474.636058,0.000000,0.000000
91.088827,-9474.636058,74.020594,76.609550
91.089154,-9474.636058,74.020594,383.047749
91.089480,-9474.636058,148.041188,0.000000
91.089806,-9252.574275,74.020594,0.000000
91.090133,-9474.636058,74.020594,0.000000
91.090459,-9326.594869,148.041188,153.219100
91.090785,-8882.471304,296.082377,0.000000
91.091112,-9178.553681,148.041188,76.609550
91.091438,-9326.594869,296.082377,-153.219100
91.091764,-9474.636058,148.041188,0.000000
91.092091,-9474.636058,296.082377,76.609550
91.092417,-9474.636058,148.041188,0.000000
91.092743,-9400.615463,0.000000,459.657299
91.093070,-9400.615463,74.020594,229.828649
91.093396,-9474.636058,74.020594,459.657299
91.093722,-9400.615463,0.000000,383.047749
91.094049,-9548.656652,74.020594,153.219100
91.094375,-9400.615463,370.102971,0.000000
91.094701,-9474.636058,444.123565,0.000000
91.095028,-9474.636058,148.041188,459.657299
91.095354,-9252.574275,148.041188,0.000000
91.095680,-9178.553681,0.000000,306.438199
91.096007,-9178.553681,0.000000,0.000000
91.096333,-9474.636058,74.020594,459.657299
91.096659,-9548.656652,0.000000,0.000000
91.096985,-9474.636058,0.000000,229.828649
91.097312,-9696.697840,0.000000,306.438199
91.097638,-9400.615463,-148.041188,306.438199
91.097964,-9326.594869,74.020594,153.219100
91.098291,-9474.636058,148.041188,229.828649
91.098617,-9326.594869,0.000000,459.657299
91.098943,-9178.553681,148.041188,0.000000
91.099270,-9252.574275,0.000000,-76.609550
91.099596,-9400.615463,222.061783,0.000000
91.099922,-9474.636058,0.000000,0.000000
91.100249,-9400.615463,296.082377,76.609550
91.100575,-9474.636058,0.000000,229.828649
91.100901,-9252.574275,0.000000,153.219100
91.101228,-9474.636058,0.000000,0.000000
91.101554,-9400.615463,0.000000,-229.828649
91.101880,-9474.636058,222.061783,0.000000
91.102207,-9474.636058,0.000000,0.000000
91.102533,-9474.636058,296.082377,0.000000
91.102859,-9400.615463,0.000000,383.047749
91.103186,-9178.553681,0.000000,306.438199
91.103512,-9770.718434,222.061783,0.000000
91.103838,-9548.656652,222.061783,153.219100
91.104165,-9548.656652,222.061783,76.609550
91.104491,-9474.636058,0.000000,76.609550
91.104817,-9400.615463,148.041188,76.609550
91.105144,-9474.636058,74.020594,229.828649
91.105470,-9400.615463,0.000000,0.000000
91.105796,-9252.574275,222.061783,-229.828649
91.106123,-9474.636058,0.000000,0.000000
91.106449,-8956.491898,0.000000,153.219100
91.106775,-9474.636058,74.020594,229.828649
91.107101,-9474.636058,296.082377,0.000000
91.107428,-9326.594869,0.000000,0.000000
91.107754,-9918.759623,518.144159,-383.047749
91.108080,-9252.574275,0.000000,459.657299
91.108407,-9474.636058,0.000000,229.828649
91.108733,-9326.594869,0.000000,153.219100
91.109059,-9400.615463,0.000000,153.219100
91.109386,-9326.594869,0.000000,-229.828649
91.109712,-9474.636058,0.000000,76.609550
91.110038,-9326.594869,0.000000,153.219100
91.110365,-9252.574275,222.061783,-383.047749
91.110691,-9474.636058,74.020594,76.609550
91.111017,-9400.615463,148.041188,76.609550
91.111344,-9474.636058,222.061783,0.000000
91.111670,-9474.636058,74.020594,459.657299
91.111996,-9548.656652,0.000000,536.266849
91.112323,-9400.615463,0.000000,0.000000
91.112649,-9474.636058,0.000000,0.000000
91.112975,-9400.615463,0.000000,229.828649
91.113302,-9474.636058,444.123565,0.000000
91.113628,-9474.636058,0.000000,0.000000
91.113954,-9178.553681,0.000000,-229.828649
91.114281,-9548.656652,148.041188,-229.828649
91.114607,-9178.553681,0.000000,0.000000
91.114933,-9400.615463,148.041188,0.000000
91.115260,-9474.636058,0.000000,459.657299
91.115586,-9548.656652,148.041188,0.000000
91.115912,-9622.677246,0.000000,0.000000
91.116239,-9474.636058,222.061783,0.000000
91.116565,-9474.636058,148.041188,153.219100
91.116891,-9252.574275,148.041188,0.000000
91.117217,-9400.615463,148.041188,76.609550
91.117544,-9252.574275,0.000000,459.657299
91.117870,-9252.574275,148.041188,0.000000
91.118196,-9252.574275,74.020594,76.609550
91.118523,-9474.636058,0.000000,0.000000
91.118849,-9548.656652,0.000000,153.219100
91.119175,-9474.636058,740.205942,76.609550
91.119502,-9844.739029,0.000000,229.828649
91.119828,-9622.677246,0.000000,229.828649
91.120154,-9474.636058,0.000000,-229.828649
91.120481,-9696.697840,518.144159,0.000000
91.120807,-9474.636058,222.061783,0.000000
91.121133,-9400.615463,444.123565,153.219100
91.121460,-9474.636058,222.061783,383.047749
91.121786,-9474.636058,296.082377,-306.438199
91.122112,-9400.615463,74.020594,0.000000
91.122439,-9326.594869,0.000000,306.438199
91.122765,-9548.656652,148.041188,0.000000
91.123091,-9400.615463,148.041188,0.000000
91.123418,-9252.574275,0.000000,0.000000
91.123744,-9326.594869,0.000000,153.219100
91.124070,-9474.636058,74.020594,0.000000
91.124397,-9474.636058,222.061783,0.000000
91.124723,-9400.615463,222.061783,689.485948
91.125049,-9474.636058,74.020594,0.000000
91.125376,-9252.574275,0.000000,229.828649
91.125702,-9326.594869,0.000000,306.438199
91.126028,-9474.636058,148.041188,-229.828649
91.126355,-9474.636058,0.000000,153.219100
91.126681,-9252.574275,0.000000,229.828649
91.127007,-9178.553681,-148.041188,153.219100
91.127333,-9400.615463,296.082377,0.000000
91.127660,-9178.553681,148.041188,612.876398
91.127985,-9474.636058,0.000000,306.438199
91.128311,-9400.615463,0.000000,0.000000
91.128638,-9474.636058,0.000000,306.438199
91.128964,-9770.718434,74.020594,-919.314598
91.129290,-9474.636058,0.000000,306.438199
91.129617,-9474.636058,74.020594,229.828649
91.129943,-9400.615463,222.061783,0.000000
91.130269,-9252.574275,0.000000,229.828649
91.130596,-9474.636058,0.000000,229.828649
91.130922,-9400.615463,0.000000,0.000000
91.131248,-9474.636058,0.000000,-153.219100
91.131575,-9400.615463,222.061783,229.828649
91.131901,-9326.594869,148.041188,306.438199
91.132227,-9696.697840,0.000000,76.609550
91.132554,-9474.636058,0.000000,76.609550
91.132880,-9696.697840,74.020594,153.219100
91.133206,-9474.636058,148.041188,76.609550
91.133533,-9474.636058,222.061783,153.219100
91.133859,-9326.594869,148.041188,0.000000
91.134185,-9400.615463,0.000000,153.219100
91.134512,-9474.636058,74.020594,229.828649
91.134838,-9400.615463,0.000000,229.828649
91.135164,-9474.636058,148.041188,76.609550
91.135491,-9474.636058,0.000000,306.438199
91.135817,-9474.636058,148.041188,0.000000
91.136143,-9326.594869,370.102971,459.657299
91.136470,-9548.656652,0.000000,306.438199
91.136796,-9622.677246,296.082377,0.000000
91.137122,-9474.636058,0.000000,383.047749
91.137449,-9474.636058,148.041188,0.000000
91.137775,-9178.553681,222.061783,76.609550
91.138101,-9548.656652,74.020594,0.000000
91.138428,-9474.636058,370.102971,-153.219100
91.138754,-9030.512492,0.000000,0.000000
91.139080,-9474.636058,148.041188,229.828649
91.139407,-9252.574275,148.041188,0.000000
91.139733,-9400.615463,0.000000,0.000000
91.140059,-9548.656652,0.000000,0.000000
91.140386,-9326.594869,370.102971,459.657299
91.140712,-9400.615463,0.000000,229.828649
91.141038,-9548.656652,148.041188,76.609550
91.141365,-9474.636058,0.000000,383.047749
91.141691,-9474.636058,148.041188,306.438199
91.142017,-9400.615463,518.144159,0.000000
91.142344,-9474.636058,74.020594,0.000000
91.142670,-9474.636058,222.061783,-153.219100
91.142996,-9474.636058,0.000000,76.609550
91.143323,-9104.533087,0.000000,-229.828649
91.143649,-9622.677246,0.000000,0.000000
91.143975,-9474.636058,74.020594,0.000000
91.144302,-9622.677246,148.041188,76.609550
91.144628,-9474.636058,370.102971,0.000000
91.144954,-9548.656652,74.020594,76.609550
91.145281,-9400.615463,0.000000,76.609550
91.145607,-9474.636058,0.000000,0.000000
91.145933,-9030.512492,0.000000,0.000000
91.146260,-9252.574275,0.000000,-229.828649
91.146586,-9400.615463,74.020594,0.000000
91.146912,-9548.656652,74.020594,0.000000
91.147239,-9622.677246,0.000000,0.000000
91.147565,-9474.636058,0.000000,153.219100
91.147891,-9400.615463,148.041188,229.828649
91.148218,-9474.636058,0.000000,229.828649
91.148544,-9474.636058,0.000000,229.828649
91.148870,-9474.636058,444.123565,0.000000
91.149197,-9474.636058,222.061783,153.219100
91.149523,-9326.594869,0.000000,306.438199
91.149849,-9326.594869,0.000000,536.266849
91.150176,-9400.615463,0.000000,76.609550
91.150502,-9178.553681,74.020594,383.047749
91.150828,-9178.553681,148.041188,0.000000
91.151155,-9622.677246,0.000000,0.000000
91.151481,-9696.697840,74.020594,0.000000
91.151807,-9030.512492,222.061783,459.657299
91.152134,-9326.594869,0.000000,229.828649
91.152460,-9252.574275,0.000000,306.438199
91.152786,-9622.677246,0.000000,76.609550
91.153113,-9252.574275,148.041188,766.095498
91.153439,-9400.615463,148.041188,-306.438199
91.153765,-9474.636058,0.000000,229.828649
91.154092,-9400.615463,296.082377,0.000000
91.154418,-9252.574275,74.020594,-153.219100
91.154744,-9104.533087,0.000000,153.219100
91.155071,-9326.594869,0.000000,383.047749
91.155397,-9474.636058,74.020594,0.000000
91.155723,-9400.615463,222.061783,-229.828649
91.156050,-9178.553681,222.061783,0.000000
91.156376,-9474.636058,0.000000,383.047749
91.156702,-9252.574275,0.000000,0.000000
91.157029,-9474.636058,0.000000,0.000000
91.157355,-9104.533087,0.000000,-459.657299
91.157681,-9474.636058,222.061783,-383.047749
91.158008,-9474.636058,0.000000,153.219100
91.158334,-9326.594869,296.082377,0.000000
91.158660,-9474.636058,0.000000,0.000000
91.158987,-9474.636058,444.123565,153.219100
91.159313,-9548.656652,74.020594,229.828649
91.159639,-9474.636058,0.000000,76.609550
91.159966,-9696.697840,74.020594,0.000000
91.160292,-9400.615463,-148.041188,689.485948
91.160618,-9474.636058,0.000000,0.000000
91.160945,-9474.636058,0.000000,0.000000
91.161271,-9548.656652,0.000000,0.000000
91.161597,-9548.656652,74.020594,612.876398
91.161924,-9474.636058,296.082377,0.000000
91.162250,-9400.615463,148.041188,0.000000
91.162576,-9474.636058,148.041188,153.219100
91.162903,-9326.594869,0.000000,0.000000
91.163229,-9474.636058,148.041188,229.828649
91.163555,-9326.594869,74.020594,229.828649
91.163882,-9326.594869,74.020594,229.828649
91.164208,-9474.636058,296.082377,76.609550
91.164534,-9474.636058,222.061783,306.438199
91.164861,-9252.574275,148.041188,-229.828649
91.165187,-9474.636058,148.041188,0.000000
91.165513,-9474.636058,0.000000,76.609550
91.165840,-9252.574275,148.041188,0.000000
91.166166,-9474.636058,222.061783,0.000000
91.166492,-9326.594869,0.000000,383.047749
91.166819,-9178.553681,0.000000,0.000000
91.167145,-9474.636058,74.020594,0.000000
91.167471,-9326.594869,0.000000,76.609550
91.167798,-9252.574275,0.000000,229.828649
91.168124,-9326.594869,296.082377,0.000000
91.168450,-9474.636058,0.000000,306.438199
91.168777,-9252.574275,0.000000,76.609550
91.169103,-9400.615463,74.020594,0.000000
91.169429,-9474.636058,74.020594,306.438199
91.169756,-9400.615463,296.082377,153.219100
91.170082,-9326.594869,0.000000,0.000000
91.170408,-9474.636058,0.000000,0.000000
91.170735,-9918.759623,296.082377,0.000000
91.171061,-9252.574275,-74.020594,0.000000
91.171387,-9400.615463,222.061783,76.609550
91.171714,-9178.553681,370.102971,0.000000
91.172040,-9474.636058,0.000000,306.438199
91.172366,-9474.636058,296.082377,0.000000
91.172693,-9474.636058,0.000000,459.657299
91.173019,-9252.574275,148.041188,-459.657299
91.173345,-9400.615463,148.041188,0.000000
91.173672,-9474.636058,74.020594,-76.609550
91.173998,-9474.636058,-296.082377,306.438199
91.174324,-9326.594869,74.020594,76.609550
91.174651,-9326.594869,148.041188,-229.828649
91.174977,-9474.636058,148.041188,76.609550
91.175303,-9474.636058,148.041188,0.000000
91.175630,-9474.636058,148.041188,0.000000
91.175956,-9622.677246,0.000000,229.828649
91.176282,-9326.594869,0.000000,383.047749
91.176609,-9326.594869,296.082377,0.000000
91.176935,-9474.636058,0.000000,459.657299
91.177261,-9474.636058,0.000000,536.266849
91.177588,-9474.636058,0.000000,153.219100
91.177914,-9548.656652,0.000000,0.000000
91.178240,-9326.594869,148.041188,0.000000
91.178567,-9400.615463,0.000000,0.000000
91.178893,-9400.615463,74.020594,153.219100
91.179219,-9548.656652,444.123565,0.000000
91.179546,-9326.594869,222.061783,229.828649
91.179872,-9770.718434,74.020594,153.219100
91.180198,-9030.512492,296.082377,0.000000
91.180525,-9400.615463,0.000000,153.219100
91.180851,-9474.636058,-296.082377,383.047749
91.181177,-9474.636058,74.020594,229.828649
91.181504,-9474.636058,222.061783,0.000000
91.181830,-9548.656652,148.041188,76.609550
91.182156,-9474.636058,148.041188,0.000000
91.182483,-9474.636058,74.020594,229.828649
91.182809,-9252.574275,0.000000,76.609550
91.183135,-9326.594869,-222.061783,-153.219100
91.183462,-9400.615463,0.000000,0.000000
91.183788,-9474.636058,148.041188,76.609550
91.184114,-9770.718434,0.000000,153.219100
91.184441,-9622.677246,222.061783,383.047749
91.184767,-9622.677246,0.000000,76.609550
91.185093,-9400.615463,0.000000,153.219100
91.185420,-9622.677246,296.082377,0.000000
91.185746,-9474.636058,296.082377,153.219100
91.186072,-9400.615463,74.020594,-536.266849
91.186399,-9474.636058,74.020594,-229.828649
91.186725,-9400.615463,0.000000,76.609550
91.187051,-9400.615463,74.020594,0.000000
91.187378,-9104.533087,222.061783,306.438199
91.187704,-9400.615463,0.000000,229.828649
91.188030,-9622.677246,74.020594,306.438199
91.188357,-9474.636058,222.061783,153.219100
91.188683,-9252.574275,222.061783,0.000000
91.189009,-9474.636058,0.000000,229.828649
91.189336,-9474.636058,0.000000,306.438199
91.189662,-9474.636058,74.020594,0.000000
91.189988,-9474.636058,148.041188,-76.609550
91.190315,-9400.615463,0.000000,76.609550
91.190641,-9252.574275,0.000000,0.000000
91.190967,-9326.594869,0.000000,306.438199
91.191294,-9474.636058,222.061783,76.609550
91.191620,-9474.636058,0.000000,229.828649
91.191946,-9548.656652,0.000000,76.609550
91.192273,-9474.636058,0.000000,76.609550
91.192599,-9622.677246,74.020594,76.609550
91.192925,-9326.594869,592.164754,229.828649
91.193252,-9474.636058,296.082377,76.609550
91.193578,-9474.636058,74.020594,76.609550
91.193904,-9474.636058,148.041188,-76.609550
91.194231,-9474.636058,0.000000,229.828649
91.194557,-9252.574275,0.000000,76.609550
91.194883,-9326.594869,148.041188,0.000000
91.195210,-9474.636058,74.020594,0.000000
91.195536,-9622.677246,74.020594,306.438199
91.195862,-8956.491898,370.102971,0.000000
91.196189,-9326.594869,74.020594,0.000000
91.196515,-9622.677246,296.082377,-76.609550
91.196841,-9474.636058,148.041188,-76.609550
91.197168,-9474.636058,370.102971,229.828649
91.197494,-9474.636058,74.020594,306.438199
91.197820,-9474.636058,74.020594,306.438199
91.198147,-9326.594869,0.000000,153.219100
91.198473,-9400.615463,296.082377,0.000000
91.198799,-9178.553681,0.000000,0.000000
91.199126,-9252.574275,74.020594,0.000000
91.199452,-9474.636058,0.000000,0.000000
91.199778,-9548.656652,222.061783,0.000000
91.200105,-9030.512492,0.000000,-306.438199
91.200431,-9474.636058,0.000000,229.828649
91.200757,-9474.636058,74.020594,153.219100
91.201084,-9326.594869,0.000000,306.438199
91.201410,-9474.636058,370.102971,229.828649
91.201736,-9770.718434,148.041188,229.828649
91.202063,-9474.636058,0.000000,229.828649
91.202389,-9696.697840,74.020594,0.000000
91.202715,-9326.594869,0.000000,0.000000
91.203042,-9474.636058,0.000000,0.000000
91.203368,-9474.636058,0.000000,0.000000
91.203694,-9474.636058,0.000000,0.000000
91.204021,-9474.636058,0.000000,229.828649
91.204347,-9252.574275,0.000000,383.047749
91.204673,-9474.636058,74.020594,153.219100
91.205000,-9622.677246,0.000000,459.657299
91.205326,-9326.594869,0.000000,76.609550
91.205652,-9696.697840,74.020594,76.609550
91.205979,-9400.615463,0.000000,0.000000
91.206305,-9400.615463,222.061783,-76.609550
91.206631,-9178.553681,0.000000,76.609550
91.206958,-9474.636058,222.061783,0.000000
91.207284,-9030.512492,0.000000,0.000000
91.207610,-9548.656652,74.020594,76.609550
91.207937,-9474.636058,222.061783,0.000000
91.208263,-9252.574275,0.000000,0.000000
91.208589,-9474.636058,74.020594,153.219100
91.208916,-9474.636058,0.000000,459.657299
91.209242,-9400.615463,74.020594,153.219100
91.209568,-9400.615463,74.020594,153.219100
91.209895,-9252.574275,0.000000,76.609550
91.210221,-9400.615463,0.000000,76.609550
91.210547,-9400.615463,296.082377,-306.438199
91.210874,-9326.594869,0.000000,76.609550
91.211200,-9548.656652,148.041188,0.000000
91.211526,-9326.594869,370.102971,-306.438199
91.211853,-9548.656652,0.000000,229.828649
91.212179,-9474.636058,74.020594,0.000000
91.212505,-9770.718434,370.102971,76.609550
91.212832,-9474.636058,148.041188,766.095498
91.213158,-9400.615463,74.020594,306.438199
91.213484,-9400.615463,148.041188,229.828649
91.213811,-9548.656652,222.061783,229.828649
91.214137,-9252.574275,0.000000,459.657299
91.214463,-9178.553681,0.000000,0.000000
91.214790,-9326.594869,0.000000,153.219100
91.215116,-9474.636058,0.000000,0.000000
91.215442,-9474.636058,0.000000,0.000000
91.215769,-9400.615463,74.020594,153.219100
91.216095,-9474.636058,296.082377,0.000000
91.216421,-9326.594869,0.000000,229.828649
91.216748,-9770.718434,296.082377,76.609550
91.217074,-9252.574275,518.144159,76.609550
91.217400,-9326.594869,296.082377,0.000000
91.217726,-9400.615463,74.020594,459.657299
91.218053,-9400.615463,74.020594,383.047749
91.218379,-9622.677246,444.123565,229.828649
91.218705,-9178.553681,0.000000,0.000000
91.219032,-9400.615463,-222.061783,0.000000
91.219358,-9400.615463,222.061783,0.000000
91.219684,-9326.594869,0.000000,229.828649
91.220011,-9326.594869,0.000000,0.000000
91.220337,-9474.636058,74.020594,76.609550
91.220663,-9474.636058,0.000000,76.609550
91.220990,-9474.636058,222.061783,0.000000
91.221316,-9400.615463,814.226536,0.000000
91.221642,-9548.656652,222.061783,153.219100
91.221969,-9326.594869,148.041188,0.000000
91.222295,-9474.636058,222.061783,-153.219100
91.222621,-9474.636058,0.000000,0.000000
91.222948,-9400.615463,222.061783,-229.828649
91.223274,-9548.656652,0.000000,0.000000
91.223600,-9326.594869,0.000000,76.609550
91.223927,-9474.636058,296.082377,-153.219100
91.224253,-9178.553681,0.000000,153.219100
91.224579,-9252.574275,74.020594,76.609550
91.224906,-9178.553681,0.000000,459.657299
91.225232,-9400.615463,296.082377,0.000000
91.225558,-9622.677246,0.000000,153.219100
91.225885,-9326.594869,74.020594,153.219100
91.226211,-9252.574275,0.000000,383.047749
91.226537,-9252.574275,0.000000,383.047749
91.226864,-9252.574275,74.020594,0.000000
91.227190,-9326.594869,0.000000,0.000000
91.227516,-9474.636058,74.020594,76.609550
91.227843,-9326.594869,148.041188,229.828649
91.228169,-9474.636058,148.041188,0.000000
91.228495,-9548.656652,222.061783,229.828649
91.228822,-9400.615463,0.000000,0.000000
91.229148,-9252.574275,0.000000,306.438199
91.229475,-9474.636058,296.082377,0.000000
91.229801,-9548.656652,370.102971,0.000000
91.230127,-9326.594869,0.000000,0.000000
91.230454,-9326.594869,0.000000,229.828649
91.230780,-9252.574275,148.041188,76.609550
91.231106,-9474.636058,222.061783,612.876398
91.231433,-9178.553681,0.000000,229.828649
91.231759,-9326.594869,0.000000,0.000000
91.232086,-9326.594869,0.000000,306.438199
91.232412,-9326.594869,0.000000,0.000000
91.232738,-9252.574275,222.061783,0.000000
91.233065,-9548.656652,0.000000,229.828649
91.233391,-9400.615463,222.061783,306.438199
91.233717,-9474.636058,222.061783,383.047749
91.234044,-9474.636058,74.020594,689.485948
91.234370,-9474.636058,74.020594,76.609550
91.234696,-9400.615463,0.000000,0.000000
91.235023,-9252.574275,74.020594,-153.219100
91.235349,-9400.615463,0.000000,0.000000
91.235676,-9326.594869,-222.061783,76.609550
91.236002,-9474.636058,148.041188,229.828649
91.236328,-9696.697840,-148.041188,0.000000
91.236655,-9474.636058,-74.020594,229.828649
91.236981,-9844.739029,0.000000,0.000000
91.237307,-9474.636058,0.000000,76.609550
91.237634,-9326.594869,0.000000,306.438199
91.237960,-9474.636058,148.041188,229.828649
91.238287,-9252.574275,370.102971,306.438199
91.238613,-9474.636058,74.020594,76.609550
91.238939,-9474.636058,0.000000,0.000000
91.239266,-9178.553681,0.000000,-76.609550
91.239592,-9474.636058,0.000000,76.609550
91.239918,-8956.491898,0.000000,-153.219100
91.240245,-9252.574275,0.000000,76.609550
91.240571,-9622.677246,74.020594,383.047749
91.240897,-9548.656652,222.061783,153.219100
91.241224,-9252.574275,296.082377,0.000000
91.241550,-9474.636058,148.041188,76.609550
91.241877,-9474.636058,148.041188,153.219100
91.242203,-9400.615463,148.041188,229.828649
91.242529,-9326.594869,222.061783,76.609550
91.242856,-9252.574275,370.102971,0.000000
91.243182,-9252.574275,0.000000,0.000000
91.243508,-9178.553681,222.061783,0.000000
91.243835,-9474.636058,222.061783,229.828649
91.244161,-9548.656652,74.020594,459.657299
91.244488,-9474.636058,370.102971,0.000000
91.244814,-9474.636058,0.000000,0.000000
91.245140,-9252.574275,74.020594,153.219100
91.245467,-9252.574275,74.020594,459.657299
91.245793,-9474.636058,0.000000,0.000000
91.246119,-9400.615463,370.102971,153.219100
91.246446,-9474.636058,0.000000,153.219100
91.246772,-9326.594869,74.020594,0.000000
91.247098,-9326.594869,0.000000,76.609550
91.247425,-9548.656652,148.041188,0.000000
91.247751,-9548.656652,74.020594,-76.609550
91.248078,-9400.615463,0.000000,306.438199
91.248404,-9474.636058,74.020594,76.609550
91.248730,-9548.656652,0.000000,612.876398
91.249057,-9696.697840,0.000000,383.047749
91.249383,-9400.615463,222.061783,0.000000
91.249709,-9474.636058,-74.020594,0.000000
91.250036,-9326.594869,74.020594,0.000000
91.250362,-9252.574275,0.000000,0.000000
91.250689,-9474.636058,0.000000,0.000000
91.251015,-9252.574275,222.061783,0.000000
91.251341,-9474.636058,74.020594,153.219100
91.251668,-9622.677246,0.000000,229.828649
91.251994,-9400.615463,0.000000,0.000000
91.252320,-9326.594869,0.000000,459.657299
91.252647,-9326.594869,0.000000,536.266849
91.252973,-9622.677246,148.041188,229.828649
91.253299,-9326.594869,0.000000,229.828649
91.253626,-9548.656652,296.082377,0.000000
91.253952,-9030.512492,0.000000,0.000000
91.254279,-9474.636058,222.061783,0.000000
91.254605,-9326.594869,296.082377,0.000000
91.254931,-9474.636058,0.000000,153.219100
91.255258,-9326.594869,296.082377,0.000000
91.255584,-9252.574275,0.000000,0.000000
91.255910,-9400.615463,148.041188,0.000000
91.256237,-9474.636058,296.082377,153.219100
91.256563,-9474.636058,74.020594,0.000000
91.256890,-9622.677246,296.082377,612.876398
91.257216,-9400.615463,222.061783,459.657299
91.257542,-9474.636058,74.020594,459.657299
91.257869,-9548.656652,148.041188,76.609550
91.258195,-9474.636058,74.020594,0.000000
91.258521,-9474.636058,74.020594,0.000000
91.258848,-9326.594869,148.041188,153.219100
91.259174,-9252.574275,370.102971,76.609550
91.259501,-9622.677246,0.000000,153.219100
91.259827,-9178.553681,74.020594,76.609550
91.260153,-9474.636058,148.041188,153.219100
91.260480,-9326.594869,0.000000,0.000000
91.260806,-9548.656652,0.000000,0.000000
91.261132,-9178.553681,222.061783,0.000000
91.261459,-9474.636058,0.000000,229.828649
91.261785,-9474.636058,0.000000,229.828649
91.262111,-9474.636058,148.041188,76.609550
91.262438,-9622.677246,0.000000,-229.828649
91.262764,-9474.636058,0.000000,153.219100
91.263091,-9400.615463,0.000000,0.000000
91.263417,-9400.615463,222.061783,0.000000
91.263743,-9400.615463,0.000000,306.438199
91.264070,-9326.594869,74.020594,153.219100
91.264396,-9696.697840,0.000000,76.609550
91.264722,-9474.636058,74.020594,306.438199
91.265049,-9474.636058,74.020594,0.000000
91.265375,-9474.636058,-222.061783,306.438199
91.265702,-9474.636058,0.000000,153.219100
91.266028,-9252.574275,0.000000,536.266849
91.266354,-9548.656652,74.020594,229.828649
91.266681,-9400.615463,0.000000,459.657299
91.267007,-9252.574275,0.000000,76.609550
91.267333,-9400.615463,-222.061783,0.000000
91.267660,-9474.636058,-222.061783,229.828649
91.267986,-9326.594869,0.000000,383.047749
91.268312,-9474.636058,-74.020594,229.828649
91.268639,-9474.636058,0.000000,0.000000
91.268965,-9474.636058,222.061783,0.000000
91.269292,-9474.636058,148.041188,76.609550
91.269618,-9400.615463,370.102971,229.828649
91.269944,-9400.615463,148.041188,0.000000
91.270271,-9548.656652,222.061783,0.000000
91.270597,-9252.574275,0.000000,0.000000
91.270923,-9474.636058,0.000000,153.219100
91.271250,-9326.594869,148.041188,76.609550
91.271576,-9548.656652,74.020594,76.609550
91.271903,-9252.574275,222.061783,76.609550
91.272229,-9400.615463,296.082377,0.000000
91.272555,-9474.636058,370.102971,0.000000
91.272882,-9252.574275,0.000000,0.000000
91.273208,-9548.656652,370.102971,76.609550
91.273534,-9400.615463,296.082377,76.609550
91.273861,-9696.697840,370.102971,459.657299
91.274187,-9548.656652,148.041188,0.000000
91.274513,-9400.615463,296.082377,0.000000
91.274840,-9474.636058,0.000000,306.438199
91.275166,-9474.636058,74.020594,229.828649
91.275493,-9474.636058,222.061783,153.219100
91.275819,-9400.615463,148.041188,0.000000
91.276145,-9548.656652,148.041188,0.000000
91.276472,-9474.636058,222.061783,0.000000
91.276798,-9104.533087,370.102971,153.219100
91.277124,-9474.636058,0.000000,536.266849
91.277451,-9104.533087,0.000000,383.047749
91.277777,-9474.636058,222.061783,153.219100
91.278104,-9252.574275,-296.082377,-306.438199
91.278430,-9918.759623,0.000000,-229.828649
91.278756,-9400.615463,0.000000,0.000000
91.279083,-9252.574275,0.000000,153.219100
91.279409,-9178.553681,-370.102971,612.876398
91.279735,-9178.553681,0.000000,153.219100
91.280062,-9844.739029,222.061783,0.000000
91.280388,-9548.656652,74.020594,0.000000
91.280714,-9474.636058,0.000000,0.000000
91.281041,-9252.574275,296.082377,-153.219100
91.281367,-9252.574275,0.000000,153.219100
91.281694,-9474.636058,-74.020594,306.438199
91.282020,-9326.594869,0.000000,306.438199
91.282346,-9400.615463,592.164754,0.000000
91.282673,-9474.636058,0.000000,-153.219100
91.282999,-9400.615463,74.020594,-229.828649
91.283325,-9400.615463,0.000000,76.609550
91.283652,-9400.615463,0.000000,536.266849
91.283978,-9252.574275,222.061783,383.047749
91.284305,-9548.656652,148.041188,0.000000
91.284631,-9474.636058,0.000000,0.000000
91.284957,-9400.615463,296.082377,0.000000
91.285284,-9474.636058,0.000000,0.000000
91.285610,-9252.574275,370.102971,0.000000
91.285936,-9474.636058,0.000000,229.828649
91.286263,-9474.636058,148.041188,153.219100
91.286589,-9252.574275,296.082377,459.657299
91.286916,-9696.697840,296.082377,-229.828649
91.287242,-9474.636058,222.061783,76.609550
91.287568,-9400.615463,222.061783,0.000000
91.287895,-9326.594869,74.020594,229.828649
91.288221,-9548.656652,0.000000,306.438199
91.288547,-9770.718434,296.082377,153.219100
91.288874,-9326.594869,222.061783,0.000000
91.289200,-9548.656652,74.020594,229.828649
91.289526,-9326.594869,444.123565,-612.876398
91.289853,-9474.636058,148.041188,76.609550
91.290179,-9400.615463,74.020594,0.000000
91.290506,-9326.594869,296.082377,0.000000
91.290832,-9252.574275,370.102971,76.609550
91.291158,-9252.574275,74.020594,229.828649
91.291485,-9252.574275,0.000000,0.000000
91.291811,-9474.636058,0.000000,76.609550
91.292137,-9548.656652,296.082377,0.000000
91.292464,-9400.615463,74.020594,153.219100
91.292790,-9400.615463,0.000000,306.438199
91.293117,-9474.636058,0.000000,229.828649
91.293443,-9400.615463,0.000000,153.219100
91.293769,-9178.553681,0.000000,919.314598
91.294096,-9400.615463,444.123565,0.000000
91.294422,-9252.574275,74.020594,0.000000
91.294748,-9548.656652,0.000000,-306.438199
91.295075,-9326.594869,-74.020594,459.657299
91.295401,-9474.636058,0.000000,306.438199
91.295727,-9696.697840,148.041188,306.438199
91.296054,-9474.636058,0.000000,76.609550
91.296380,-9622.677246,74.020594,153.219100
91.296707,-9252.574275,-148.041188,76.609550
91.297033,-9474.636058,74.020594,153.219100
91.297359,-9474.636058,0.000000,-153.219100
91.297686,-9474.636058,296.082377,0.000000
91.298012,-9178.553681,0.000000,0.000000
91.298338,-9178.553681,0.000000,0.000000
91.298665,-9474.636058,0.000000,-153.219100
91.298991,-9252.574275,0.000000,0.000000
91.299318,-9474.636058,148.041188,0.000000
91.299644,-9548.656652,222.061783,0.000000
91.299970,-9474.636058,74.020594,0.000000
91.300297,-9548.656652,74.020594,76.609550
91.300623,-9474.636058,148.041188,-76.609550
91.300949,-9474.636058,0.000000,306.438199
91.301276,-9474.636058,222.061783,0.000000
91.301602,-9548.656652,222.061783,0.000000
91.301928,-9474.636058,296.082377,-383.047749
91.302255,-9548.656652,370.102971,0.000000
91.302581,-9326.594869,148.041188,0.000000
91.302908,-9326.594869,0.000000,229.828649
91.303234,-9252.574275,148.041188,229.828649
91.303560,-9178.553681,0.000000,306.438199
91.303887,-9474.636058,148.041188,306.438199
91.304213,-9474.636058,74.020594,153.219100
91.304539,-9474.636058,222.061783,0.000000
91.304866,-9474.636058,222.061783,76.609550
91.305192,-9030.512492,74.020594,383.047749
91.305519,-9474.636058,222.061783,229.828649
91.305845,-9548.656652,222.061783,0.000000
91.306171,-9548.656652,0.000000,0.000000
91.306498,-9104.533087,0.000000,-229.828649
91.306824,-9400.615463,296.082377,0.000000
91.307150,-9252.574275,0.000000,76.609550
91.307477,-9622.677246,222.061783,153.219100
91.307803,-9474.636058,0.000000,383.047749
91.308129,-9400.615463,148.041188,229.828649
91.308456,-9474.636058,0.000000,0.000000
91.308782,-9326.594869,0.000000,229.828649
91.309109,-9548.656652,222.061783,153.219100
91.309435,-9252.574275,0.000000,612.876398
91.309761,-9400.615463,296.082377,0.000000
91.310088,-9326.594869,74.020594,153.219100
91.310414,-9474.636058,0.000000,0.000000
91.310740,-9474.636058,74.020594,306.438199
91.311067,-9474.636058,0.000000,306.438199
91.311393,-9474.636058,0.000000,76.609550
91.311720,-9252.574275,-148.041188,76.609550
91.312046,-9696.697840,0.000000,76.609550
91.312372,-9326.594869,0.000000,153.219100
91.312699,-9474.636058,148.041188,229.828649
91.313025,-9548.656652,0.000000,76.609550
91.313351,-9400.615463,148.041188,0.000000
91.313678,-9844.739029,222.061783,-306.438199
91.314004,-9104.533087,74.020594,0.000000
91.314331,-9474.636058,296.082377,0.000000
91.314657,-9474.636058,0.000000,229.828649
91.314983,-9400.615463,74.020594,0.000000
91.315310,-9474.636058,222.061783,-306.438199
91.315636,-9326.594869,0.000000,459.657299
91.315962,-9326.594869,0.000000,0.000000
91.316289,-9548.656652,222.061783,0.000000
91.316615,-9326.594869,0.000000,0.000000
91.316941,-9474.636058,0.000000,383.047749
91.317268,-9326.594869,148.041188,0.000000
91.317594,-9474.636058,370.102971,0.000000
91.317921,-9548.656652,222.061783,0.000000
91.318247,-9400.615463,74.020594,0.000000
91.318573,-9326.594869,74.020594,0.000000
91.318900,-9474.636058,222.061783,-229.828649
91.319226,-9326.594869,222.061783,0.000000
91.319552,-9622.677246,296.082377,0.000000
91.319879,-9474.636058,0.000000,76.609550
91.320205,-9252.574275,0.000000,153.219100
91.320532,-9252.574275,0.000000,306.438199
91.320858,-9326.594869,148.041188,76.609550
91.321184,-9326.594869,74.020594,0.000000
91.321511,-9326.594869,148.041188,76.609550
91.321837,-9252.574275,74.020594,-383.047749
91.322163,-9400.615463,148.041188,0.000000
91.322490,-9548.656652,0.000000,0.000000
91.322816,-9548.656652,0.000000,229.828649
91.323142,-9400.615463,74.020594,0.000000
91.323469,-9400.615463,0.000000,459.657299
91.323795,-9326.594869,0.000000,76.609550
91.324122,-9474.636058,0.000000,76.609550
91.324448,-9474.636058,222.061783,0.000000
91.324774,-9252.574275,0.000000,0.000000
91.325101,-9252.574275,74.020594,0.000000
91.325427,-9474.636058,0.000000,153.219100
91.325753,-9474.636058,74.020594,383.047749
91.326080,-9474.636058,148.041188,0.000000
91.326406,-9178.553681,74.020594,383.047749
91.326733,-9474.636058,0.000000,229.828649
91.327059,-9548.656652,0.000000,0.000000
91.327385,-9474.636058,0.000000,0.000000
91.327712,-9400.615463,0.000000,0.000000
91.328038,-9474.636058,-222.061783,229.828649
91.328364,-9696.697840,0.000000,383.047749
91.328691,-9622.677246,74.020594,229.828649
91.329017,-9400.615463,0.000000,76.609550
91.329343,-9474.636058,0.000000,306.438199
91.329670,-9474.636058,148.041188,-76.609550
91.329996,-9252.574275,222.061783,0.000000
91.330323,-9326.594869,222.061783,0.000000
91.330649,-9474.636058,0.000000,536.266849
91.330975,-9252.574275,0.000000,0.000000
91.331302,-9326.594869,0.000000,153.219100
91.331628,-9474.636058,0.000000,229.828649
91.331954,-9326.594869,-296.082377,0.000000
91.332281,-9474.636058,0.000000,153.219100
91.332607,-9474.636058,370.102971,0.000000
91.332934,-9474.636058,0.000000,306.438199
91.333260,-9548.656652,222.061783,76.609550
91.333586,-9326.594869,666.185348,-306.438199
91.333913,-9326.594869,222.061783,76.609550
91.334239,-9326.594869,0.000000,76.609550
91.334565,-9474.636058,222.061783,306.438199
91.334892,-8956.491898,296.082377,0.000000
91.335218,-9474.636058,370.102971,306.438199
91.335545,-9400.615463,0.000000,153.219100
91.335871,-9474.636058,296.082377,0.000000
91.336197,-9474.636058,0.000000,229.828649
91.336524,-9252.574275,222.061783,-76.609550
91.336850,-9326.594869,444.123565,0.000000
91.337176,-9400.615463,0.000000,0.000000
91.337503,-9474.636058,74.020594,0.000000
91.337829,-9474.636058,0.000000,459.657299
91.338156,-9474.636058,0.000000,383.047749
91.338482,-9474.636058,222.061783,0.000000
91.338808,-9400.615463,74.020594,536.266849
91.339135,-9400.615463,296.082377,536.266849
91.339461,-9252.574275,0.000000,0.000000
91.339787,-9178.553681,0.000000,0.000000
91.340114,-9474.636058,0.000000,-306.438199
91.340440,-9474.636058,0.000000,0.000000
91.340766,-9474.636058,148.041188,383.047749
91.341093,-9474.636058,148.041188,536.266849
91.341419,-9474.636058,0.000000,0.000000
91.341746,-9622.677246,0.000000,76.609550
91.342072,-9400.615463,0.000000,0.000000
91.342398,-9326.594869,296.082377,0.000000
91.342725,-9252.574275,-296.082377,0.000000
91.343051,-9400.615463,148.041188,-153.219100
91.343377,-9400.615463,-74.020594,766.095498
91.343704,-9400.615463,0.000000,0.000000
91.344030,-9400.615463,74.020594,76.609550
91.344357,-9326.594869,74.020594,0.000000
91.344683,-9474.636058,148.041188,383.047749
91.345009,-9474.636058,74.020594,306.438199
91.345336,-9474.636058,148.041188,306.438199
91.345662,-9474.636058,74.020594,0.000000
91.345988,-9326.594869,74.020594,306.438199
91.346315,-9548.656652,592.164754,-153.219100
91.346641,-9400.615463,222.061783,0.000000
91.346968,-9474.636058,0.000000,0.000000
91.347294,-9326.594869,0.000000,0.000000
91.347620,-9178.553681,148.041188,76.609550
91.347947,-9474.636058,74.020594,536.266849
91.348273,-9474.636058,74.020594,229.828649
91.348599,-9474.636058,296.082377,153.219100
91.348926,-9326.594869,0.000000,306.438199
91.349252,-9326.594869,222.061783,76.609550
91.349579,-9400.615463,0.000000,76.609550
91.349905,-9252.574275,0.000000,76.609550
91.350231,-9474.636058,0.000000,0.000000
91.350558,-9326.594869,0.000000,0.000000
91.350884,-9474.636058,444.123565,0.000000
91.351210,-9326.594869,148.041188,0.000000
91.351537,-9474.636058,370.102971,153.219100
91.351863,-9474.636058,74.020594,842.705048
91.352189,-9474.636058,148.041188,0.000000
91.352516,-9474.636058,222.061783,153.219100
91.352842,-9474.636058,148.041188,0.000000
91.353169,-9474.636058,222.061783,153.219100
91.353495,-9474.636058,74.020594,76.609550
91.353821,-9252.574275,148.041188,-153.219100
91.354148,-9400.615463,0.000000,229.828649
91.354474,-9326.594869,148.041188,0.000000
91.354800,-9474.636058,74.020594,-383.047749
91.355127,-9474.636058,0.000000,0.000000
91.355453,-9474.636058,222.061783,229.828649
91.355780,-9474.636058,0.000000,306.438199
91.356106,-9474.636058,0.000000,383.047749
91.356432,-9474.636058,0.000000,229.828649
91.356759,-9400.615463,0.000000,153.219100
91.357085,-9400.615463,-74.020594,0.000000
91.357411,-9400.615463,0.000000,76.609550
91.357738,-9548.656652,0.000000,-153.219100
91.358064,-9400.615463,0.000000,0.000000
91.358391,-9400.615463,74.020594,76.609550
91.358717,-9326.594869,74.020594,0.000000
91.359043,-9326.594869,0.000000,536.266849
91.359370,-9326.594869,0.000000,153.219100
91.359696,-9400.615463,0.000000,76.609550
91.360022,-9474.636058,0.000000,0.000000
91.360349,-9474.636058,148.041188,153.219100
91.360675,-9400.615463,74.020594,0.000000
91.361001,-9474.636058,0.000000,0.000000
91.361328,-9400.615463,222.061783,0.000000
91.361654,-9474.636058,296.082377,0.000000
91.361981,-9030.512492,0.000000,0.000000
91.362307,-9252.574275,0.000000,0.000000
91.362633,-9326.594869,0.000000,0.000000
91.362960,-9400.615463,0.000000,229.828649
91.363286,-9252.574275,0.000000,0.000000
91.363612,-9548.656652,0.000000,-153.219100
91.363939,-9400.615463,74.020594,306.438199
91.364265,-9326.594869,0.000000,153.219100
91.364592,-9252.574275,74.020594,306.438199
91.364918,-9252.574275,296.082377,0.000000
91.365244,-9252.574275,296.082377,0.000000
91.365571,-9474.636058,74.020594,153.219100
91.365897,-9400.615463,148.041188,0.000000
91.366223,-9252.574275,0.000000,-153.219100
91.366550,-9400.615463,148.041188,76.609550
91.366876,-9252.574275,0.000000,383.047749
91.367203,-9400.615463,222.061783,153.219100
91.367529,-9474.636058,222.061783,612.876398
91.367855,-9252.574275,0.000000,0.000000
91.368182,-9474.636058,296.082377,0.000000
91.368508,-9400.615463,222.061783,0.000000
91.368834,-9474.636058,74.020594,-153.219100
91.369161,-9474.636058,518.144159,76.609550
91.369487,-9474.636058,0.000000,229.828649
91.369814,-9400.615463,370.102971,0.000000
91.370140,-9844.739029,74.020594,229.828649
91.370466,-9030.512492,74.020594,306.438199
91.370793,-9474.636058,-148.041188,76.609550
91.371119,-9474.636058,-296.082377,383.047749
91.371445,-9696.697840,74.020594,76.609550
91.371772,-9252.574275,148.041188,0.000000
91.372098,-9326.594869,0.000000,229.828649
91.372424,-9474.636058,0.000000,153.219100
91.372751,-9474.636058,222.061783,76.609550
91.373077,-9326.594869,0.000000,229.828649
91.373404,-9474.636058,0.000000,229.828649
91.373730,-9326.594869,0.000000,0.000000
91.374056,-9474.636058,74.020594,0.000000
91.374383,-9474.636058,0.000000,229.828649
91.374709,-9548.656652,0.000000,536.266849
91.375035,-9400.615463,296.082377,0.000000
91.375362,-9474.636058,0.000000,0.000000
91.375688,-9474.636058,0.000000,0.000000
91.376015,-9104.533087,148.041188,76.609550
91.376341,-9474.636058,-222.061783,153.219100
91.376667,-9326.594869,0.000000,153.219100
91.376994,-9622.677246,74.020594,0.000000
91.377320,-9622.677246,0.000000,229.828649
91.377646,-9474.636058,370.102971,0.000000
91.377973,-9400.615463,0.000000,229.828649
91.378299,-9474.636058,0.000000,0.000000
91.378626,-9474.636058,370.102971,0.000000
91.378952,-9326.594869,222.061783,0.000000
91.379278,-9474.636058,0.000000,0.000000
91.379605,-9400.615463,0.000000,229.828649
91.379931,-9474.636058,0.000000,76.609550
91.380257,-9474.636058,0.000000,229.828649
91.380584,-9400.615463,0.000000,153.219100
91.380910,-9474.636058,0.000000,306.438199
91.381237,-9474.636058,148.041188,0.000000
91.381563,-9696.697840,222.061783,0.000000
91.381889,-9474.636058,444.123565,0.000000
91.382216,-9474.636058,74.020594,383.047749
91.382542,-9252.574275,0.000000,229.828649
91.382868,-9400.615463,296.082377,76.609550
91.383195,-9252.574275,592.164754,0.000000
91.383521,-9252.574275,74.020594,306.438199
91.383847,-9400.615463,148.041188,76.609550
91.384174,-9474.636058,0.000000,0.000000
91.384500,-9252.574275,222.061783,-689.485948
91.384827,-9400.615463,0.000000,459.657299
91.385153,-9178.553681,0.000000,0.000000
91.385479,-9474.636058,444.123565,0.000000
91.385806,-9474.636058,74.020594,153.219100
91.386132,-9400.615463,148.041188,0.000000
91.386458,-9622.677246,0.000000,459.657299
91.386785,-9326.594869,0.000000,229.828649
91.387111,-9474.636058,0.000000,0.000000
91.387438,-9474.636058,-444.123565,229.828649
91.387764,-9400.615463,0.000000,76.609550
91.388090,-9252.574275,-148.041188,0.000000
91.388417,-9252.574275,0.000000,0.000000
91.388743,-9400.615463,-296.082377,766.095498
91.389069,-9400.615463,0.000000,229.828649
91.389396,-9326.594869,148.041188,0.000000
91.389722,-9326.594869,0.000000,306.438199
91.390049,-9696.697840,74.020594,229.828649
91.390375,-9548.656652,0.000000,76.609550
91.390701,-9474.636058,0.000000,0.000000
91.391028,-9474.636058,0.000000,229.828649
91.391354,-9474.636058,0.000000,229.828649
91.391680,-9400.615463,0.000000,-536.266849
91.392007,-9474.636058,148.041188,0.000000
91.392333,-9326.594869,0.000000,153.219100
91.392660,-9252.574275,0.000000,0.000000
91.392986,-9474.636058,0.000000,76.609550
91.393312,-9400.615463,0.000000,0.000000
91.393639,-9474.636058,74.020594,153.219100
91.393965,-9326.594869,222.061783,76.609550
91.394291,-9400.615463,222.061783,459.657299
91.394618,-9548.656652,0.000000,229.828649
91.394944,-9474.636058,0.000000,76.609550
91.395270,-9178.553681,74.020594,383.047749
91.395597,-9326.594869,222.061783,0.000000
91.395923,-9474.636058,222.061783,229.828649
91.396250,-9400.615463,296.082377,0.000000
91.396576,-9326.594869,0.000000,76.609550
91.396902,-9326.594869,74.020594,153.219100
91.397229,-9400.615463,74.020594,229.828649
91.397555,-9622.677246,148.041188,0.000000
91.397881,-9474.636058,148.041188,229.828649
91.398208,-9400.615463,222.061783,76.609550
91.398534,-9474.636058,296.082377,0.000000
91.398861,-8882.471304,444.123565,0.000000
91.399187,-9548.656652,0.000000,0.000000
91.399513,-9400.615463,222.061783,153.219100
91.399840,-9252.574275,0.000000,76.609550
91.400166,-9178.553681,0.000000,0.000000
91.400492,-9400.615463,0.000000,0.000000
91.400819,-9474.636058,222.061783,153.219100
91.401145,-9770.718434,74.020594,76.609550
91.401472,-9474.636058,148.041188,76.609550
91.401798,-9400.615463,296.082377,0.000000
91.402124,-9252.574275,0.000000,306.438199
91.402451,-9474.636058,0.000000,306.438199
91.402777,-9474.636058,0.000000,306.438199
91.403103,-9474.636058,-148.041188,306.438199
91.403430,-9400.615463,0.000000,229.828649
91.403756,-9252.574275,148.041188,0.000000
91.404082,-9178.553681,0.000000,76.609550
91.404409,-9326.594869,0.000000,306.438199
91.404735,-9400.615463,0.000000,0.000000
91.405062,-9474.636058,0.000000,0.000000
91.405388,-9326.594869,0.000000,229.828649
91.405714,-9474.636058,74.020594,0.000000
91.406041,-9622.677246,148.041188,76.609550
91.406367,-9400.615463,0.000000,459.657299
91.406693,-9400.615463,0.000000,0.000000
91.407020,-9400.615463,0.000000,76.609550
91.407346,-8956.491898,0.000000,0.000000
91.407673,-9474.636058,74.020594,0.000000
91.407999,-9474.636058,0.000000,76.609550
91.408325,-9252.574275,-222.061783,153.219100
91.408652,-9474.636058,148.041188,-153.219100
91.408978,-9474.636058,0.000000,306.438199
91.409304,-9474.636058,148.041188,229.828649
91.409631,-9474.636058,444.123565,0.000000
91.409957,-9474.636058,148.041188,153.219100
91.410284,-9178.553681,148.041188,0.000000
91.410610,-9622.677246,74.020594,76.609550
91.410936,-9474.636058,222.061783,0.000000
91.411263,-9548.656652,296.082377,76.609550
91.411589,-9326.594869,0.000000,536.266849
91.411915,-9474.636058,370.102971,153.219100
91.412242,-9326.594869,148.041188,0.000000
91.412568,-9474.636058,296.082377,0.000000
91.412895,-9252.574275,296.082377,306.438199
91.413221,-9252.574275,74.020594,0.000000
91.413547,-9252.574275,222.061783,0.000000
91.413874,-9548.656652,148.041188,0.000000
91.414200,-9400.615463,296.082377,0.000000
91.414526,-9474.636058,0.000000,153.219100
91.414853,-9474.636058,148.041188,0.000000
91.415179,-9474.636058,148.041188,153.219100
91.415505,-9326.594869,0.000000,306.438199
91.415832,-9400.615463,296.082377,-383.047749
91.416158,-9474.636058,74.020594,0.000000
91.416485,-9474.636058,74.020594,-459.657299
91.416811,-9326.594869,222.061783,-766.095498
91.417137,-9400.615463,0.000000,-229.828649
91.417464,-9622.677246,74.020594,-689.485948
91.417790,-9326.594869,0.000000,-842.705048
91.418116,-9622.677246,0.000000,-1149.143247
91.418443,-9548.656652,296.082377,-919.314598
91.418769,-9548.656652,148.041188,-1302.362347
91.419096,-9252.574275,0.000000,-1762.019645
91.419422,-9696.697840,0.000000,-1991.848295
91.419748,-9474.636058,148.041188,-1762.019645
91.420075,-9696.697840,518.144159,-1302.362347
91.420401,-9178.553681,-370.102971,-1149.143247
91.420727,-9104.533087,0.000000,-1685.410096
91.421054,-9992.780217,0.000000,-1608.800546
91.421380,-9326.594869,-296.082377,-1838.629195
91.421707,-9474.636058,296.082377,-2221.676944
91.422033,-9770.718434,0.000000,-1608.800546
91.422359,-9252.574275,148.041188,-2068.457845
91.422686,-9030.512492,0.000000,-1532.190996
91.423012,-8734.430116,0.000000,-2374.896044
91.423338,-9622.677246,-74.020594,-2145.067394
91.423665,-9770.718434,-222.061783,-1991.848295
91.423991,-9474.636058,-518.144159,-1455.581446
91.424318,-9548.656652,0.000000,-1838.629195
91.424644,-9992.780217,-74.020594,-1378.971896
91.424970,-9844.739029,-444.123565,-1762.019645
91.425297,-9844.739029,-814.226536,-2604.724693
91.425623,-9474.636058,-740.205942,-3064.381992
91.425949,-8956.491898,-740.205942,-4136.915689
91.426276,-8808.450710,-962.267725,-4443.353888
91.426602,-8660.409521,-1184.329507,-3983.696590
91.426928,-8660.409521,-370.102971,-3370.820191
91.427255,-9252.574275,0.000000,-2604.724693
91.427581,-9178.553681,518.144159,-2987.772442
91.427908,-9474.636058,592.164754,-2221.676944
91.428234,-9770.718434,814.226536,-1149.143247
91.428560,-9474.636058,1036.288319,-383.047749
91.428887,-9918.759623,518.144159,459.657299
91.429213,-10436.903782,370.102971,919.314598
91.429539,-10140.821405,222.061783,383.047749
91.429866,-10362.883188,-370.102971,76.609550
91.430192,-9992.780217,0.000000,-612.876398
91.430519,-9770.718434,-518.144159,-1072.533697
91.430845,-8734.430116,-962.267725,-1378.971896
91.431171,-7476.080014,-962.267725,-1378.971896
91.431498,-7772.162391,-296.082377,-1149.143247
91.431824,-8216.285956,444.123565,-536.266849
91.432150,-8142.265362,1628.453072,-1455.581446
91.432477,-8734.430116,1850.514855,-919.314598
91.432803,-9844.739029,1406.391290,383.047749
91.433129,-11695.253884,740.205942,1302.362347
91.433456,-11991.336260,222.061783,1762.019645
91.433782,-11103.089130,0.000000,1915.238745
91.434108,-10732.986159,-222.061783,1225.752797
91.434435,-9918.759623,-1184.329507,-1302.362347
91.434761,-9474.636058,-1628.453072,-4673.182538
91.435087,-7920.203579,-1702.473667,-6052.154434
91.435414,-6513.812290,-1850.514855,-5132.839837
91.435740,-6291.750507,444.123565,-3753.867940
91.436066,-6217.729913,1406.391290,-2604.724693
91.436393,-7402.059420,1628.453072,-229.828649
91.436719,-9252.574275,814.226536,2451.505594
91.437045,-11769.274478,1480.411884,3677.258390
91.437371,-14359.995275,1406.391290,2757.943793
91.437698,-14211.954086,888.247130,536.266849
91.438024,-12213.398043,-444.123565,-1455.581446
91.438350,-10066.800811,-1332.370696,-4903.011187
91.438677,-7550.100608,-1776.494261,-7354.516781
91.439003,-6957.935855,-1554.432478,-7584.345430
91.439329,-6735.874072,-296.082377,-5515.887586
91.439656,-6291.750507,666.185348,-1991.848295
91.439982,-6661.853478,148.041188,153.219100
91.440308,-8956.491898,-666.185348,1762.019645
91.440635,-11695.253884,0.000000,2604.724693
91.440961,-12065.356855,1406.391290,1991.848295
91.441287,-11103.089130,740.205942,0.000000
91.441614,-11325.150913,-1258.350101,-2681.334243
91.441940,-10214.842000,-1554.432478,-3524.039291
91.442266,-8734.430116,-370.102971,-4213.525239
91.442593,-7846.182985,518.144159,-4290.134789
91.442919,-9178.553681,296.082377,-2451.505594
91.443245,-9030.512492,-444.123565,-1838.629195
91.443572,-7402.059420,-370.102971,-689.485948
91.443898,-6587.832884,296.082377,1072.533697
91.444224,-8216.285956,1258.350101,4213.525239
91.444551,-12509.480420,962.267725,6894.859482
91.444877,-13397.727550,370.102971,6588.421283
91.445203,-12361.439231,666.185348,4136.915689
91.445530,-11695.253884,1184.329507,-2451.505594
91.445856,-9548.656652,814.226536,-8886.707777
91.446182,-7550.100608,-1110.308913,-12793.794817
91.446509,-5551.544565,-1110.308913,-12104.308868
91.446835,-3997.112087,0.000000,-5975.544884
91.447161,-5033.400406,-740.205942,766.095498
91.447488,-8882.471304,-1480.411884,4213.525239
91.447814,-11843.295072,370.102971,5822.325785
91.448140,-13027.624579,2664.741391,4366.744339
91.448467,-13175.665768,1998.556043,2374.896044
91.448793,-13249.686362,518.144159,0.000000
91.449119,-12361.439231,74.020594,612.876398
91.449446,-9918.759623,1776.494261,-919.314598
91.449772,-6809.894666,1924.535449,-5132.839837
91.450098,-5921.647536,-148.041188,-10648.727422
91.450425,-5773.606348,-2146.597232,-14785.643111
91.450751,-6365.771101,-2146.597232,-13253.452115
91.451077,-7772.162391,-2146.597232,-6358.592633
91.451404,-8364.327145,-2960.823768,2834.553343
91.451730,-8956.491898,-2294.638420,10955.165621
91.452056,-8438.347739,1628.453072,12027.699319
91.452382,-9918.759623,2960.823768,5975.544884
91.452709,-15248.242405,1406.391290,-1532.190996
91.453035,-16876.695478,814.226536,-6971.469032
91.453361,-13027.624579,3182.885551,-7507.735880
91.453688,-7254.018232,2590.720797,-7584.345430
91.454014,-4589.276840,-1184.329507,-7584.345430
91.454340,-5107.421000,-3552.988522,-6205.373534
91.454667,-6365.771101,-4515.256246,-5286.058936
91.454993,-5921.647536,-4367.215058,-1378.971896
91.455319,-7402.059420,-3478.967927,4749.792088
91.455646,-10955.047942,222.061783,11184.994271
91.455972,-13027.624579,3182.885551,13176.842566
91.456298,-14359.995275,2664.741391,8580.269578
91.456625,-14508.036463,1258.350101,1072.533697
91.456951,-14582.057057,2664.741391,-5898.935335
91.457277,-10584.944971,2590.720797,-10955.165621
91.457604,-6661.853478,-222.061783,-14172.766713
91.457930,-4515.256246,-2442.679609,-11951.089769
91.458256,-2886.803174,-4293.194464,-6128.763984
91.458583,-2664.741391,-3330.926739,1072.533697
91.458909,-8068.244768,-1036.288319,6358.592633
91.459235,-13989.892304,1184.329507,8044.002729
91.459562,-16062.468941,-222.061783,7584.345430
91.459888,-12065.356855,-666.185348,4749.792088
91.460214,-9104.533087,1850.514855,1991.848295
91.460541,-9326.594869,3552.988522,-2145.067394
91.460867,-10955.047942,2368.659014,-4903.011187
91.461193,-9474.636058,1184.329507,-6511.811733
91.461520,-6439.791695,1406.391290,-9576.193725
91.461846,-3627.009116,-370.102971,-11031.775171
91.462172,-7179.997637,-740.205942,-8273.831378
91.462499,-11325.150913,-296.082377,-2911.162892
91.462825,-9918.759623,-2146.597232,3064.381992
91.463151,-7179.997637,-3701.029710,9039.926876
91.463478,-8586.388927,0.000000,12104.308868
91.463804,-15544.324782,1702.473667,7584.345430
91.464130,-15544.324782,1258.350101,-2068.457845
91.464457,-9030.512492,2960.823768,-6052.154434
91.464783,-7402.059420,6735.874072,-5209.449386
91.465109,-10881.027347,3404.947333,-9269.755526
91.465436,-8882.471304,-592.164754,-12870.404366
91.465762,-2368.659014,-444.123565,-9499.584175
91.466088,-1480.411884,296.082377,0.000000
91.466414,-7994.224174,-2886.803174,2221.676944
91.466741,-14211.954086,-4293.194464,1225.752797
91.467067,-14359.995275,-2146.597232,6665.030833
91.467393,-12731.542202,1110.308913,13866.328514
91.467720,-11843.295072,1924.535449,10265.679673
91.468046,-15174.221811,1924.535449,-3753.867940
91.468372,-13397.727550,1998.556043,-11874.480219
91.468699,-4737.318029,2590.720797,-12410.747068
91.469025,-592.164754,0.000000,-13176.842566
91.469351,-4589.276840,-3034.844362,-13253.452115
91.469678,-8660.409521,-1036.288319,-4826.401637
91.470004,-7624.121203,-296.082377,7354.516781
91.470330,-5921.647536,-814.226536,12180.918418
91.470657,-11177.109724,-2812.782580,10035.851024
91.470983,-17542.880825,-1702.473667,6052.154434
91.471309,-17987.004391,-592.164754,4903.011187
91.471636,-12805.562797,518.144159,6358.592633
91.471962,-6291.750507,1110.308913,2987.772442
91.472288,-5847.626942,1776.494261,-1378.971896
91.472615,-8512.368333,2812.782580,-5592.497135
91.472941,-10436.903782,1258.350101,-8580.269578
91.473267,-7254.018232,-740.205942,-10342.289223
91.473594,-4811.338623,-2220.617826,-6281.983084
91.473920,-7031.956449,-1628.453072,5362.668486
91.474246,-9844.739029,-3182.885551,12257.527968
91.474573,-8216.285956,-3552.988522,14402.595362
91.474899,-10362.883188,-1184.329507,13100.233016
91.475225,-15100.201217,2960.823768,8886.707777
91.475552,-17172.777854,3701.029710,-2528.115143
91.475878,-11325.150913,2442.679609,-12180.918418
91.476204,-5625.565159,2886.803174,-9806.022374
91.476531,-7105.977043,1998.556043,-5209.449386
91.476857,-6143.709319,-518.144159,-4136.915689
91.477183,-3627.009116,-2294.638420,-2528.115143
91.477510,-5921.647536,0.000000,3677.258390
91.477836,-11251.130318,222.061783,6741.640382
91.478162,-13545.768739,-888.247130,995.924147
91.478489,-10955.047942,-1332.370696,-1685.410096
91.478815,-9918.759623,592.164754,4826.401637
91.479141,-13471.748144,1406.391290,8273.831378
91.479468,-10066.800811,666.185348,0.000000
91.479794,-5625.565159,2812.782580,-5362.668486
91.480120,-7402.059420,4811.338623,-5822.325785
91.480447,-10584.944971,2590.720797,-9116.536426
91.480773,-8438.347739,-370.102971,-13559.890315
91.481099,-6143.709319,-740.205942,-7354.516781
91.481425,-9178.553681,-370.102971,8197.221829
91.481752,-10066.800811,-2294.638420,13483.280765
91.482078,-8512.368333,-3849.070898,9116.536426
91.482404,-9548.656652,-1702.473667,5132.839837
91.482731,-14063.912898,1850.514855,5286.058936
91.483057,-15470.304188,1850.514855,-1838.629195
91.483383,-11399.171507,1110.308913,-10801.946522
91.483710,-7328.038826,2664.741391,-6894.859482
91.484036,-5477.523971,1702.473667,-1991.848295
91.484362,-3849.070898,-1258.350101,-3064.381992
91.484689,-4811.338623,-3256.906145,-3753.867940
91.485015,-8660.409521,-962.267725,1149.143247
91.485341,-13323.706956,444.123565,8656.879127
91.485668,-13841.851115,-1628.453072,6358.592633
91.485994,-11029.068536,-2146.597232,3753.867940
91.486320,-12509.480420,-666.185348,6971.469032
91.486647,-13175.665768,222.061783,6281.983084
91.486973,-9252.574275,-1332.370696,-1608.800546
91.487299,-5699.585753,-370.102971,-5286.058936
91.487626,-6661.853478,2368.659014,-3677.258390
91.487952,-9844.739029,2294.638420,-4903.011187
91.488278,-8734.430116,0.000000,-8273.831378
91.488605,-6143.709319,-1554.432478,-4903.011187
91.488931,-8586.388927,-888.247130,5745.716235
91.489257,-10807.006753,-2368.659014,9806.022374
91.489584,-9622.677246,-3923.091493,7201.297681
91.489910,-8882.471304,-1998.556043,6894.859482
91.490236,-11621.233289,2886.803174,7737.564530
91.490563,-13915.871710,3627.009116,-306.438199
91.490889,-11695.253884,1702.473667,-11184.994271
91.491215,-8364.327145,2886.803174,-10648.727422
91.491542,-8142.265362,3108.864956,-4060.306139
91.491868,-7994.224174,0.000000,-1762.019645
91.492194,-5329.482782,-2146.597232,-2298.286494
91.492521,-5033.400406,-814.226536,3447.429741
91.492847,-10214.842000,888.247130,7660.954980
91.493173,-12287.418637,-888.247130,2145.067394
91.493500,-11695.253884,-2590.720797,-3294.210641
91.493826,-11695.253884,0.000000,1225.752797
91.494152,-11177.109724,2442.679609,5975.544884
91.494479,-7994.224174,1110.308913,1762.019645
91.494805,-4737.318029,1110.308913,-4213.525239
91.495131,-7920.203579,4145.153275,-4519.963438
91.495457,-12657.521608,3997.112087,-4903.011187
91.495784,-10584.944971,74.020594,-9116.536426
91.496110,-7179.997637,-888.247130,-6818.249932
91.496436,-9104.533087,740.205942,5439.278036
91.496763,-11325.150913,-1406.391290,11031.775171
91.497089,-8364.327145,-5107.421000,7277.907231
91.497415,-6957.935855,-2738.761985,4060.306139
91.497742,-11399.171507,1998.556043,4213.525239
91.498068,-13545.768739,1628.453072,-2757.943793
91.498394,-10362.883188,-296.082377,-10189.070123
91.498721,-6883.915261,1702.473667,-7584.345430
91.499047,-8512.368333,2442.679609,153.219100
91.499373,-9178.553681,-814.226536,1149.143247
91.499700,-5847.626942,-2368.659014,-1915.238745
91.500026,-6883.915261,0.000000,2374.896044
91.500352,-11473.192101,666.185348,7507.735880
91.500679,-13027.624579,-1480.411884,3447.429741
91.501005,-11843.295072,-3404.947333,-459.657299
91.501331,-12731.542202,-148.041188,5132.839837
91.501658,-13397.727550,1406.391290,7890.783629
91.501984,-8660.409521,-1554.432478,1838.629195
91.502310,-4663.297435,-888.247130,-4673.182538
91.502637,-7402.059420,2368.659014,-3830.477490
91.502963,-11325.150913,2442.679609,-3370.820191
91.503289,-9474.636058,-962.267725,-7890.783629
91.503616,-5477.523971,-1628.453072,-5439.278036
91.503942,-7846.182985,-222.061783,6435.202183
91.504268,-10510.924376,-1110.308913,9193.145976
91.504595,-7994.224174,-3108.864956,3370.820191
91.504921,-8142.265362,-2220.617826,2451.505594
91.505247,-12139.377449,1554.432478,4903.011187
91.505574,-13619.789333,2738.761985,-153.219100
91.505900,-9918.759623,962.267725,-7814.174080
91.506226,-7328.038826,2664.741391,-6435.202183
91.506553,-8586.388927,3256.906145,-842.705048
91.506879,-8068.244768,518.144159,-1072.533697
91.507205,-6883.915261,-1998.556043,-4060.306139
91.507532,-7920.203579,222.061783,1072.533697
91.507858,-11917.315666,1998.556043,7354.516781
91.508184,-11769.274478,222.061783,2374.896044
91.508511,-8956.491898,-1924.535449,-3294.210641
91.508837,-10436.903782,-444.123565,-153.219100
91.509163,-11325.150913,1406.391290,2834.553343
91.509489,-8438.347739,148.041188,-995.924147
91.509816,-5255.462188,1110.308913,-4903.011187
91.510142,-7624.121203,3256.906145,-2221.676944
91.510468,-12657.521608,3849.070898,-919.314598
91.510795,-10658.965565,222.061783,-6588.421283
91.511121,-7920.203579,-814.226536,-6435.202183
91.511447,-10510.924376,0.000000,4443.353888
91.511774,-11399.171507,-1776.494261,9116.536426
91.512100,-7846.182985,-4367.215058,4903.011187
91.512426,-6365.771101,-3108.864956,2911.162892
91.512753,-10214.842000,962.267725,5209.449386
91.513079,-13841.851115,962.267725,-995.924147
91.513405,-10214.842000,-962.267725,-8963.317327
91.513732,-6365.771101,814.226536,-7507.735880
91.514058,-7254.018232,2072.576638,689.485948
91.514384,-8216.285956,-518.144159,3064.381992
91.514711,-5921.647536,-2072.576638,-459.657299
91.515037,-8512.368333,0.000000,3983.696590
91.515363,-14211.954086,1628.453072,8656.879127
91.515690,-13323.706956,-1184.329507,4136.915689
91.516016,-10214.842000,-2442.679609,-1532.190996
91.516342,-11251.130318,0.000000,2528.115143
91.516669,-12657.521608,814.226536,5898.935335
91.516995,-8438.347739,-1776.494261,0.000000
91.517321,-3923.091493,-1332.370696,-4673.182538
91.517648,-6661.853478,1998.556043,-2834.553343
91.517974,-11399.171507,3256.906145,-2911.162892
91.518300,-9474.636058,0.000000,-8044.002729
91.518627,-6587.832884,-1480.411884,-6741.640382
91.518953,-8956.491898,-222.061783,4519.963438
91.519279,-11769.274478,-518.144159,7814.174080
91.519606,-8586.388927,-2738.761985,3983.696590
91.519932,-7179.997637,-1480.411884,2145.067394
91.520258,-10510.924376,2368.659014,4596.572988
91.520585,-13471.748144,2220.617826,-1225.752797
91.520911,-10288.862594,370.102971,-10572.117872
91.521237,-7624.121203,2146.597232,-8503.660028
91.521564,-9178.553681,3108.864956,-306.438199
91.521890,-8438.347739,888.247130,612.876398
91.522216,-5995.668130,-2294.638420,-2451.505594
91.522543,-7994.224174,0.000000,2374.896044
91.522869,-12583.501014,1628.453072,7201.297681
91.523195,-12731.542202,-296.082377,2145.067394
91.523522,-9030.512492,-2220.617826,-3830.477490
91.523848,-9992.780217,0.000000,689.485948
91.524174,-11473.192101,1554.432478,4596.572988
91.524500,-7550.100608,74.020594,-383.047749
91.524827,-4885.359217,148.041188,-5056.230287
91.525153,-9104.533087,3552.988522,-2145.067394
91.525479,-12657.521608,3034.844362,-766.095498
91.525806,-9918.759623,222.061783,-5669.106685
91.526132,-6661.853478,-814.226536,-3983.696590
91.526458,-10658.965565,740.205942,6358.592633
91.526785,-13323.706956,-1036.288319,9652.803275
91.527111,-7920.203579,-4441.235652,4290.134789
91.527437,-5847.626942,-3108.864956,2681.334243
91.527764,-10955.047942,888.247130,5439.278036
91.528090,-13249.686362,1036.288319,-919.314598
91.528416,-9178.553681,-666.185348,-8733.488677
91.528743,-6069.688724,444.123565,-7201.297681
91.529069,-7624.121203,2146.597232,383.047749
91.529395,-8882.471304,-222.061783,1072.533697
91.529722,-7105.977043,-2146.597232,-2298.286494
91.530048,-9030.512492,148.041188,3447.429741
91.530375,-13693.809927,1110.308913,8656.879127
91.530701,-12509.480420,-1036.288319,4136.915689
91.531027,-8956.491898,-2294.638420,-2374.896044
91.531354,-10881.027347,74.020594,1302.362347
91.531680,-13101.645173,962.267725,4596.572988
91.532007,-9030.512492,-1554.432478,-1532.190996
91.532333,-4145.153275,-592.164754,-5975.544884
91.532659,-6957.935855,2294.638420,-3140.991542
91.532986,-11843.295072,2368.659014,-1608.800546
91.533312,-9474.636058,-444.123565,-6665.030833
91.533638,-6291.750507,-666.185348,-5515.887586
91.533965,-9030.512492,592.164754,4903.011187
91.534291,-11843.295072,0.000000,7584.345430
91.534618,-7994.224174,-2368.659014,1762.019645
91.534944,-7105.977043,-666.185348,459.657299
91.535270,-12731.542202,2590.720797,4366.744339
91.535597,-13693.809927,2294.638420,-612.876398
91.535923,-8956.491898,296.082377,-7890.783629
91.536250,-6365.771101,2220.617826,-5515.887586
91.536576,-8734.430116,3256.906145,1225.752797
91.536902,-10066.800811,222.061783,1149.143247
91.537229,-5477.523971,-2368.659014,-3830.477490
91.537555,-6883.915261,-74.020594,1838.629195
91.537881,-13175.665768,1184.329507,8273.831378
91.538208,-12139.377449,-1110.308913,2757.943793
91.538534,-8512.368333,-2368.659014,-2145.067394
91.538861,-9326.594869,148.041188,2451.505594
91.539187,-11547.212695,1554.432478,5209.449386
91.539513,-8808.450710,-1184.329507,-1608.800546
91.539840,-4737.318029,222.061783,-6205.373534
91.540166,-7550.100608,2960.823768,-1685.410096
91.540493,-12509.480420,1554.432478,1685.410096
91.540819,-10584.944971,-814.226536,-3677.258390
91.541145,-8290.306550,-888.247130,-2221.676944
91.541472,-11991.336260,296.082377,8120.612279
91.541798,-13397.727550,-1258.350101,10265.679673
91.542124,-7402.059420,-3182.885551,1455.581446
91.542451,-6587.832884,-1924.535449,-689.485948
91.542777,-10584.944971,1036.288319,2374.896044
91.543104,-12731.542202,592.164754,-2145.067394
91.543430,-8586.388927,-888.247130,-8886.707777
91.543756,-6439.791695,518.144159,-6281.983084
91.544083,-9252.574275,2220.617826,1149.143247
91.544409,-8512.368333,-148.041188,612.876398
91.544736,-6143.709319,-1924.535449,-3140.991542
91.545062,-7994.224174,222.061783,1455.581446
91.545388,-13767.830521,1406.391290,6205.373534
91.545715,-12287.418637,-444.123565,1302.362347
91.546041,-7550.100608,-1776.494261,-3830.477490
91.546367,-9622.677246,1258.350101,1302.362347
91.546694,-13915.871710,1998.556043,4519.963438
91.547020,-9696.697840,-740.205942,-1072.533697
91.547347,-5181.441594,-222.061783,-5056.230287
91.547673,-7031.956449,2368.659014,-1225.752797
91.547999,-10510.924376,1924.535449,-766.095498
91.548326,-8882.471304,-1036.288319,-7124.688131
91.548652,-6143.709319,-1850.514855,-5515.887586
91.548979,-8216.285956,-148.041188,5362.668486
91.549305,-11399.171507,0.000000,9576.193725
91.549631,-9178.553681,-962.267725,2757.943793
91.549958,-7994.224174,518.144159,612.876398
91.550284,-12583.501014,3034.844362,3983.696590
91.550610,-11917.315666,1776.494261,-1762.019645
91.550937,-8586.388927,0.000000,-8733.488677
91.551263,-8142.265362,1258.350101,-4903.011187
91.551590,-9992.780217,1998.556043,3753.867940
91.551916,-9104.533087,0.000000,5132.839837
91.552242,-5699.585753,-2294.638420,-1149.143247
91.552569,-7179.997637,-296.082377,1149.143247
91.552895,-14508.036463,666.185348,4979.620737
91.553222,-13397.727550,-1258.350101,76.609550
91.553548,-7550.100608,-2590.720797,-3753.867940
91.553874,-7994.224174,-592.164754,2145.067394
91.554201,-10732.986159,814.226536,5822.325785
91.554527,-8216.285956,-1628.453072,-383.047749
91.554854,-5477.523971,0.000000,-5745.716235
91.555180,-9030.512492,2664.741391,-1608.800546
91.555506,-13175.665768,1554.432478,76.609550
91.555833,-9770.718434,-1332.370696,-4136.915689
91.556159,-7402.059420,-962.267725,-2374.896044
91.556485,-10955.047942,0.000000,7507.735880
91.556812,-13249.686362,-888.247130,8810.098227
91.557138,-8068.244768,-3108.864956,842.705048
91.557465,-5995.668130,-1554.432478,-689.485948
91.557791,-11325.150913,1998.556043,1685.410096
91.558117,-12731.542202,1258.350101,-1762.019645
91.558444,-7846.182985,-888.247130,-8120.612279
91.558770,-5921.647536,592.164754,-4290.134789
91.559097,-8734.430116,1924.535449,2987.772442
91.559423,-9474.636058,222.061783,1762.019645
91.559749,-6809.894666,-666.185348,-3600.648841
91.560076,-8142.265362,1184.329507,919.314598
91.560402,-13471.748144,2442.679609,5745.716235
91.560728,-12509.480420,0.000000,1608.800546
91.561055,-8808.450710,-1036.288319,-3370.820191
91.561381,-9844.739029,1184.329507,2145.067394
91.561708,-12213.398043,1628.453072,5745.716235
91.562034,-8956.491898,0.000000,-1608.800546
91.562360,-5255.462188,0.000000,-5056.230287
91.562687,-7846.182985,2368.659014,-1225.752797
91.563013,-12065.356855,2368.659014,0.000000
91.563340,-9474.636058,-296.082377,-5515.887586
91.563666,-5847.626942,-1110.308913,-4826.401637
91.563992,-9474.636058,518.144159,4979.620737
91.564319,-11917.315666,148.041188,6741.640382
91.564645,-7772.162391,-1480.411884,919.314598
91.564971,-6957.935855,-296.082377,-459.657299
91.565298,-12213.398043,3182.885551,3677.258390
91.565624,-14063.912898,1628.453072,-689.485948
91.565951,-9548.656652,-148.041188,-7660.954980
91.566277,-6883.915261,518.144159,-3753.867940
91.566603,-9178.553681,1036.288319,4213.525239
91.566930,-9178.553681,-1554.432478,3064.381992
91.567256,-5551.544565,-2960.823768,-2374.896044
91.567583,-7994.224174,-296.082377,1455.581446
91.567909,-13397.727550,592.164754,5209.449386
91.568235,-12583.501014,-1628.453072,-459.657299
91.568562,-7402.059420,-2664.741391,-5132.839837
91.568888,-8290.306550,-296.082377,612.876398
91.569214,-11547.212695,0.000000,5286.058936
91.569541,-9400.615463,-1850.514855,612.876398
91.569867,-6957.935855,148.041188,-2451.505594
91.570194,-9474.636058,3034.844362,1455.581446
91.570520,-12583.501014,2220.617826,1991.848295
91.570846,-8956.491898,-1480.411884,-4979.620737
91.571173,-7328.038826,-1110.308913,-4903.011187
91.571499,-11843.295072,518.144159,4596.572988
91.571826,-13175.665768,-1184.329507,7201.297681
91.572152,-6735.874072,-2960.823768,1838.629195
91.572478,-5107.421000,-962.267725,766.095498
91.572805,-11399.171507,2368.659014,3600.648841
91.573131,-14508.036463,1332.370696,-2451.505594
91.573457,-8364.327145,-962.267725,-9806.022374
91.573784,-5033.400406,518.144159,-5132.839837
91.574110,-7920.203579,1406.391290,2298.286494
91.574437,-8882.471304,0.000000,2298.286494
91.574763,-6587.832884,-1332.370696,-1762.019645
91.575089,-8438.347739,1406.391290,2834.553343
91.575416,-13323.706956,1776.494261,6741.640382
91.575742,-12879.583391,74.020594,0.000000
91.576069,-8734.430116,-1554.432478,-5132.839837
91.576395,-9400.615463,1628.453072,612.876398
91.576721,-11843.295072,2590.720797,4903.011187
91.577048,-8068.244768,-1036.288319,-1685.410096
91.577374,-5477.523971,-592.164754,-4443.353888
91.577700,-8734.430116,2812.782580,0.000000
91.578027,-12805.562797,1628.453072,689.485948
91.578353,-9770.718434,-814.226536,-3064.381992
91.578680,-6957.935855,-592.164754,-2221.676944
91.579006,-9992.780217,1554.432478,6588.421283
91.579332,-11695.253884,-370.102971,6205.373534
91.579659,-7179.997637,-2738.761985,-1378.971896
91.579985,-6217.729913,-148.041188,-2145.067394
91.580312,-12213.398043,4293.194464,3294.210641
91.580638,-14211.954086,2442.679609,-229.828649
91.580964,-8956.491898,222.061783,-6358.592633
91.581291,-7179.997637,1702.473667,-1608.800546
91.581617,-10510.924376,1406.391290,4749.792088
91.581944,-9918.759623,-1480.411884,1762.019645
91.582270,-6217.729913,-3923.091493,-1455.581446
91.582596,-7031.956449,-1036.288319,4673.182538
91.582923,-11843.295072,962.267725,8044.002729
91.583249,-11177.109724,-814.226536,76.609550
91.583575,-7031.956449,-1332.370696,-7354.516781
91.583902,-9474.636058,1184.329507,-2451.505594
91.584228,-12509.480420,740.205942,1302.362347
91.584555,-7476.080014,-1480.411884,-4290.134789
91.584881,-3997.112087,-296.082377,-4136.915689
91.585207,-8808.450710,2516.700203,3447.429741
91.585534,-13101.645173,1554.432478,2604.724693
91.585860,-10214.842000,-1850.514855,-4136.915689
91.586187,-8290.306550,-1480.411884,-4136.915689
91.586513,-11917.315666,74.020594,5362.668486
91.586839,-12213.398043,-1480.411884,6358.592633
91.587166,-6439.791695,-3330.926739,229.828649
91.587492,-5477.523971,-444.123565,-612.876398
91.587818,-12435.459826,2590.720797,2068.457845
91.588145,-13249.686362,1036.288319,-4979.620737
91.588471,-7698.141797,-888.247130,-11721.261119
91.588798,-6365.771101,1628.453072,-4826.401637
91.589124,-10066.800811,1406.391290,4519.963438
91.589450,-9696.697840,-1258.350101,3983.696590
91.589777,-5773.606348,-1776.494261,612.876398
91.590103,-8364.327145,962.267725,5056.230287
91.590430,-14211.954086,1406.391290,6665.030833
91.590756,-12879.583391,-740.205942,-2068.457845
91.591082,-8290.306550,-740.205942,-5822.325785
91.591409,-9474.636058,1776.494261,1532.190996
91.591735,-11769.274478,2220.617826,6511.811733
91.592061,-8068.244768,-1258.350101,-689.485948
91.592388,-4515.256246,-148.041188,-3447.429741
91.592714,-8364.327145,2146.597232,459.657299
91.593041,-12287.418637,1110.308913,-383.047749
91.593367,-8956.491898,-814.226536,-6818.249932
91.593693,-5995.668130,-1184.329507,-3753.867940
91.594020,-9178.553681,74.020594,7124.688131
91.594346,-11695.253884,-370.102971,7814.174080
91.594673,-7179.997637,-2220.617826,0.000000
91.594999,-7698.141797,-370.102971,-689.485948
91.595325,-12435.459826,3404.947333,2681.334243
91.595652,-12583.501014,1702.473667,-2451.505594
91.595978,-8364.327145,-74.020594,-8810.098227
91.596304,-7994.224174,1110.308913,-2681.334243
91.596631,-11103.089130,1850.514855,5592.497135
91.596957,-8438.347739,-1184.329507,3370.820191
91.597284,-4663.297435,-2516.700203,-1225.752797
91.597610,-8142.265362,444.123565,2604.724693
91.597936,-14285.974681,1184.329507,4596.572988
91.598263,-11917.315666,-1258.350101,-1991.848295
91.598589,-6735.874072,-1332.370696,-5209.449386
91.598916,-9622.677246,1110.308913,2451.505594
91.599242,-13101.645173,1110.308913,4903.011187
91.599568,-8142.265362,-1110.308913,-1915.238745
91.599895,-4145.153275,296.082377,-4596.572988
91.600221,-9474.636058,2368.659014,919.314598
91.600547,-13249.686362,1332.370696,-612.876398
91.600874,-8364.327145,-1332.370696,-7201.297681
91.601200,-6217.729913,-370.102971,-3830.477490
91.601527,-10584.944971,148.041188,6358.592633
91.601853,-11917.315666,-1036.288319,6741.640382
91.602179,-7624.121203,-3108.864956,-766.095498
91.602506,-6661.853478,-814.226536,153.219100
91.602832,-13175.665768,2368.659014,4290.134789
91.603159,-13545.768739,888.247130,-2834.553343
91.603485,-7105.977043,-1110.308913,-9193.145976
91.603811,-6069.688724,148.041188,-3370.820191
91.604138,-9548.656652,666.185348,3753.867940
91.604464,-8956.491898,-1628.453072,1991.848295
91.604790,-6513.812290,-1924.535449,-1991.848295
91.605117,-8142.265362,888.247130,3983.696590
91.605443,-13027.624579,1110.308913,6894.859482
91.605770,-11843.295072,-1110.308913,-383.047749
91.606096,-8882.471304,-666.185348,-4903.011187
91.606422,-10955.047942,1998.556043,2528.115143
91.606749,-12953.603985,2516.700203,5515.887586
91.607075,-7254.018232,-1332.370696,-2528.115143
91.607402,-3849.070898,592.164754,-4136.915689
91.607728,-9326.594869,2294.638420,689.485948
91.608054,-13249.686362,1258.350101,306.438199
91.608381,-8808.450710,-1332.370696,-4979.620737
91.608707,-6587.832884,-1110.308913,-1838.629195
91.609034,-10066.800811,148.041188,8044.002729
91.609360,-11473.192101,-1332.370696,7660.954980
91.609686,-7105.977043,-2886.803174,1072.533697
91.610013,-7105.977043,0.000000,842.705048
91.610339,-11917.315666,3923.091493,2987.772442
91.610665,-12213.398043,2072.576638,-3217.601092
91.610992,-7254.018232,518.144159,-11491.432470
91.611318,-7402.059420,1702.473667,-4290.134789
91.611645,-12065.356855,1702.473667,4443.353888
91.611971,-9474.636058,-740.205942,2604.724693
91.612297,-4293.194464,-2368.659014,0.000000
91.612624,-7254.018232,0.000000,4673.182538
91.612950,-13693.809927,666.185348,5132.839837
91.613277,-12731.542202,-1258.350101,-3447.429741
91.613603,-7698.141797,-1258.350101,-7507.735880
91.613929,-8586.388927,888.247130,1225.752797
91.614256,-12065.356855,518.144159,5209.449386
91.614582,-7550.100608,-814.226536,-1838.629195
91.614908,-4885.359217,814.226536,-4903.011187
91.615235,-10658.965565,3330.926739,612.876398
91.615561,-14285.974681,1776.494261,-1072.533697
91.615888,-9030.512492,-666.185348,-7507.735880
91.616214,-6883.915261,-592.164754,-4213.525239
91.616540,-10732.986159,296.082377,6971.469032
91.616867,-11029.068536,-1850.514855,8273.831378
91.617193,-5847.626942,-4219.173869,1378.971896
91.617520,-6587.832884,-1702.473667,1838.629195
91.617846,-14508.036463,2960.823768,5745.716235
91.618172,-14508.036463,1554.432478,-1378.971896
91.618499,-7254.018232,-148.041188,-9499.584175
91.618825,-7105.977043,1332.370696,-4673.182538
91.619151,-10066.800811,962.267725,3447.429741
91.619478,-7772.162391,-1036.288319,1302.362347
91.619804,-4293.194464,-1480.411884,-2374.896044
91.620131,-8956.491898,1480.411884,4519.963438
91.620457,-14878.139434,962.267725,6435.202183
91.620783,-11843.295072,-1776.494261,-1762.019645
91.621110,-7105.977043,-1998.556043,-3677.258390
91.621436,-10288.862594,222.061783,4290.134789
91.621763,-13101.645173,888.247130,7431.126331
91.622089,-7254.018232,-1850.514855,-1302.362347
91.622415,-3330.926739,0.000000,-4213.525239
91.622742,-9104.533087,2368.659014,0.000000
91.623068,-13693.809927,1554.432478,-1762.019645
91.623394,-8882.471304,-740.205942,-7967.393179
91.623721,-6143.709319,-148.041188,-3830.477490
91.624047,-9918.759623,592.164754,8197.221829
91.624374,-11325.150913,-1480.411884,6818.249932
91.624700,-7179.997637,-2516.700203,-1149.143247
91.625026,-8660.409521,-592.164754,0.000000
91.625353,-14211.954086,2442.679609,4596.572988
91.625679,-12509.480420,962.267725,-919.314598
91.626006,-6809.894666,0.000000,-6818.249932
91.626332,-7698.141797,2368.659014,-1685.410096
91.626658,-11769.274478,2368.659014,4366.744339
91.626985,-9770.718434,-518.144159,0.000000
91.627311,-5255.462188,-1702.473667,-4749.792088
91.627637,-8216.285956,1702.473667,1685.410096
91.627964,-13619.789333,1850.514855,4826.401637
91.628290,-10732.986159,-888.247130,-1225.752797
91.628617,-6883.915261,-2368.659014,-3600.648841
91.628943,-9770.718434,518.144159,3983.696590
91.629269,-12213.398043,740.205942,5362.668486
91.629596,-7772.162391,-1332.370696,-2221.676944
91.629922,-4737.318029,444.123565,-4903.011187
91.630249,-9400.615463,2886.803174,76.609550
91.630575,-13619.789333,1406.391290,0.000000
91.630901,-8142.265362,-1036.288319,-6971.469032
91.631228,-6513.812290,0.000000,-2528.115143
91.631554,-10140.821405,1332.370696,8044.002729
91.631880,-10584.944971,-740.205942,6588.421283
91.632207,-7031.956449,-3108.864956,-1072.533697
91.632533,-7550.100608,-962.267725,-919.314598
91.632860,-13989.892304,2368.659014,4136.915689
91.633186,-14137.933492,444.123565,-459.657299
91.633512,-7254.018232,-814.226536,-7201.297681
91.633839,-7476.080014,1184.329507,-1532.190996
91.634165,-11177.109724,1702.473667,4366.744339
91.634492,-7624.121203,-1036.288319,-1455.581446
91.634818,-4219.173869,-1702.473667,-5745.716235
91.635144,-8512.368333,1554.432478,1225.752797
91.635471,-14359.995275,1480.411884,6894.859482
91.635797,-11769.274478,-888.247130,1149.143247
91.636124,-7698.141797,-962.267725,-1915.238745
91.636450,-11695.253884,1554.432478,5439.278036
91.636776,-13989.892304,444.123565,5362.668486
91.637103,-7328.038826,-2738.761985,-2834.553343
91.637429,-3701.029710,-666.185348,-3907.087040
91.637755,-8882.471304,1776.494261,3217.601092
91.638082,-12805.562797,740.205942,2528.115143
91.638408,-7179.997637,-1036.288319,-6281.983084
91.638735,-5995.668130,74.020594,-3677.258390
91.639061,-11843.295072,962.267725,3600.648841
91.639387,-12213.398043,-1184.329507,3217.601092
91.639714,-6883.915261,-2516.700203,-1685.410096
91.640040,-7105.977043,74.020594,1685.410096
91.640367,-12509.480420,3034.844362,7124.688131
91.640693,-11991.336260,370.102971,-919.314598
91.641019,-6883.915261,-1332.370696,-9576.193725
91.641346,-7476.080014,888.247130,-4366.744339
91.641672,-12139.377449,1036.288319,2834.553343
91.641999,-9326.594869,-1850.514855,229.828649
91.642325,-4515.256246,-1850.514855,-2451.505594
91.642651,-7328.038826,1184.329507,4596.572988
91.642978,-13989.892304,1628.453072,4979.620737
91.643304,-11991.336260,-1184.329507,-3983.696590
91.643630,-7920.203579,-1184.329507,-7354.516781
91.643957,-9104.533087,1332.370696,919.314598
91.644283,-11695.253884,814.226536,5669.106685
91.644610,-8068.244768,-1036.288319,-383.047749
91.644936,-6365.771101,592.164754,-1915.238745
91.645262,-11621.233289,3108.864956,4366.744339
91.645589,-13841.851115,1332.370696,2221.676944
91.645915,-8438.347739,148.041188,-6588.421283
91.646242,-6957.935855,962.267725,-4366.744339
91.646568,-10584.944971,1702.473667,5056.230287
91.646894,-11103.089130,-296.082377,5209.449386
91.647221,-5699.585753,-2590.720797,-995.924147
91.647547,-7105.977043,0.000000,842.705048
91.647874,-14137.933492,2220.617826,5209.449386
91.648200,-13471.748144,518.144159,-842.705048
91.648526,-6069.688724,-888.247130,-7814.174080
91.648853,-6069.688724,370.102971,-2145.067394
91.649179,-9918.759623,222.061783,3294.210641
91.649505,-8142.265362,-1998.556043,-306.438199
91.649832,-3923.091493,-1924.535449,-3907.087040
91.650158,-7179.997637,1998.556043,2451.505594
91.650485,-13989.892304,1480.411884,4979.620737
91.650811,-11769.274478,-2072.576638,-2681.334243
91.651137,-7846.182985,-2146.597232,-3600.648841
91.651464,-11325.150913,1554.432478,5362.668486
91.651790,-14063.912898,444.123565,8044.002729
91.652117,-8882.471304,-2220.617826,76.609550
91.652443,-4219.173869,-444.123565,-2528.115143
91.652769,-8808.450710,2368.659014,919.314598
91.653096,-13027.624579,1258.350101,-2298.286494
91.653422,-8216.285956,-592.164754,-9882.631924
91.653749,-6587.832884,592.164754,-6894.859482
91.654075,-10658.965565,740.205942,5515.887586
91.654401,-12139.377449,-740.205942,6435.202183
91.654728,-7772.162391,-2294.638420,536.266849
91.655054,-8512.368333,0.000000,3140.991542
91.655381,-14508.036463,2442.679609,7354.516781
91.655707,-13323.706956,0.000000,-459.657299
91.656033,-5995.668130,-1110.308913,-9576.193725
91.656360,-6513.812290,1184.329507,-4366.744339
91.656686,-10807.006753,1628.453072,1838.629195
91.657012,-8290.306550,-518.144159,-995.924147
91.657339,-4071.132681,-1258.350101,-4366.744339
91.657665,-8068.244768,1480.411884,1149.143247
91.657992,-13989.892304,1110.308913,4443.353888
91.658318,-11325.150913,-2442.679609,-2681.334243
91.658644,-6069.688724,-1998.556043,-3907.087040
91.658971,-9548.656652,296.082377,5209.449386
91.659297,-12657.521608,296.082377,8120.612279
91.659624,-7550.100608,-1628.453072,-306.438199
91.659950,-5329.482782,1258.350101,-2604.724693
91.660276,-11473.192101,3552.988522,1302.362347
91.660603,-14508.036463,1776.494261,-2298.286494
91.660929,-8364.327145,-666.185348,-8580.269578
91.661256,-4959.379811,-370.102971,-4060.306139
91.661582,-10881.027347,1480.411884,7814.174080
91.661908,-12213.398043,-592.164754,7354.516781
91.662235,-7105.977043,-2886.803174,459.657299
91.662561,-7994.224174,-518.144159,3064.381992
91.662887,-14508.036463,2294.638420,6358.592633
91.663214,-13693.809927,666.185348,-1532.190996
91.663540,-6439.791695,-518.144159,-8580.269578
91.663867,-6365.771101,1480.411884,-2834.553343
91.664193,-10288.862594,1258.350101,4060.306139
91.664519,-7698.141797,-1184.329507,-1685.410096
91.664846,-4663.297435,-962.267725,-5209.449386
91.665172,-9918.759623,1628.453072,3294.210641
91.665499,-16136.489536,814.226536,7048.078582
91.665825,-11547.212695,-1998.556043,306.438199
91.666151,-6883.915261,-1776.494261,-2374.896044
91.666478,-10732.986159,888.247130,5132.839837
91.666804,-11991.336260,-370.102971,5286.058936
91.667131,-6217.729913,-1702.473667,-3753.867940
91.667457,-4071.132681,148.041188,-6281.983084
91.667783,-10584.944971,3108.864956,0.000000
91.668110,-13989.892304,962.267725,-1149.143247
91.668436,-6513.812290,-1776.494261,-8044.002729
91.668762,-5625.565159,-666.185348,-2528.115143
91.669089,-12213.398043,296.082377,7124.688131
91.669415,-12583.501014,-1258.350101,5056.230287
91.669742,-6661.853478,-2146.597232,-1225.752797
91.670068,-7994.224174,518.144159,1608.800546
91.670394,-14211.954086,3034.844362,5209.449386
91.670721,-13249.686362,888.247130,-3600.648841
91.671047,-6587.832884,-518.144159,-9806.022374
91.671374,-6883.915261,1924.535449,-2757.943793
91.671700,-11473.192101,1628.453072,3600.648841
91.672026,-8512.368333,-740.205942,0.000000
91.672353,-4811.338623,-962.267725,-2451.505594
91.672679,-9400.615463,1480.411884,4749.792088
91.673006,-14656.077652,740.205942,6511.811733
91.673332,-10807.006753,-1924.535449,-1455.581446
91.673658,-6883.915261,-1850.514855,-3294.210641
91.673985,-10584.944971,1184.329507,4903.011187
91.674311,-12509.480420,1184.329507,6435.202183
91.674637,-6883.915261,-222.061783,-2451.505594
91.674964,-5403.503377,1406.391290,-4366.744339
91.675290,-11843.295072,3404.947333,459.657299
91.675617,-12583.501014,814.226536,-1762.019645
91.675943,-5847.626942,-2072.576638,-8044.002729
91.676269,-5033.400406,-1184.329507,-1915.238745
91.676596,-11769.274478,74.020594,9959.241474
91.676922,-12435.459826,-1480.411884,7354.516781
91.677249,-6883.915261,-2442.679609,459.657299
91.677575,-7994.224174,-222.061783,1072.533697
91.677901,-13693.809927,2516.700203,2528.115143
91.678228,-11769.274478,0.000000,-4903.011187
91.678554,-4885.359217,-1776.494261,-9806.022374
91.678881,-5847.626942,1110.308913,-2298.286494
91.679207,-11399.171507,1480.411884,4749.792088
91.679533,-8734.430116,-592.164754,-842.705048
91.679860,-5847.626942,-666.185348,-4290.134789
91.680186,-11177.109724,1924.535449,3830.477490
91.680512,-15914.427753,1184.329507,5822.325785
91.680839,-11103.089130,-2442.679609,-1838.629195
91.681165,-6291.750507,-1776.494261,-3064.381992
91.681492,-9918.759623,740.205942,5515.887586
91.681818,-12805.562797,0.000000,5515.887586
91.682144,-7994.224174,-1850.514855,-4213.525239
91.682471,-4959.379811,148.041188,-4443.353888
91.682797,-10732.986159,2886.803174,1838.629195
91.683124,-12509.480420,1258.350101,-459.657299
91.683450,-7105.977043,-1628.453072,-8350.440928
91.683776,-5847.626942,-666.185348,-3524.039291
91.684103,-10807.006753,666.185348,6435.202183
91.684429,-9918.759623,-1628.453072,5209.449386
91.684756,-5995.668130,-2442.679609,-689.485948
91.685082,-9030.512492,74.020594,2451.505594
91.685408,-15544.324782,3034.844362,7354.516781
91.685735,-12435.459826,148.041188,-1072.533697
91.686061,-6217.729913,-1258.350101,-7660.954980
91.686387,-7624.121203,1332.370696,-1762.019645
91.686714,-11103.089130,1036.288319,3524.039291
91.687040,-6291.750507,-1924.535449,-1378.971896
91.687367,-3404.947333,-1406.391290,-3907.087040
91.687693,-9104.533087,1998.556043,3830.477490
91.688019,-15988.448347,1702.473667,5515.887586
91.688346,-11621.233289,-1258.350101,-2604.724693
91.688672,-7105.977043,-1776.494261,-2987.772442
91.688999,-11399.171507,1110.308913,5898.935335
91.689325,-12139.377449,296.082377,6205.373534
91.689651,-6587.832884,-814.226536,-2757.943793
91.689978,-5329.482782,1776.494261,-4213.525239
91.690304,-11103.089130,3404.947333,536.266849
91.690631,-13471.748144,1406.391290,-2757.943793
91.690957,-7179.997637,-888.247130,-9806.022374
91.691283,-6365.771101,814.226536,-3370.820191
91.691610,-11843.295072,1258.350101,8427.050478
91.691936,-10881.027347,-1036.288319,5745.716235
91.692262,-5699.585753,-2368.659014,-612.876398
91.692589,-8290.306550,-148.041188,919.314598
91.692915,-13841.851115,2072.576638,3677.258390
91.693242,-12361.439231,-444.123565,-1915.238745
91.693568,-5995.668130,-740.205942,-6435.202183
91.693894,-5551.544565,1332.370696,0.000000
91.694221,-10436.903782,1332.370696,5822.325785
91.694547,-8882.471304,-74.020594,-1225.752797
91.694874,-5181.441594,0.000000,-6818.249932
91.695200,-10881.027347,1554.432478,459.657299
91.695526,-15396.283594,-148.041188,4749.792088
91.695853,-10066.800811,-2368.659014,76.609550
91.696179,-7031.956449,-1702.473667,306.438199
91.696506,-10658.965565,814.226536,7737.564530
91.696832,-12435.459826,222.061783,6358.592633
91.697158,-6957.935855,-2368.659014,-5362.668486
91.697485,-4441.235652,370.102971,-7737.564530
91.697811,-11029.068536,2294.638420,-1685.410096
91.698138,-13693.809927,740.205942,-459.657299
91.698464,-6883.915261,-1406.391290,-5209.449386
91.698790,-5773.606348,-222.061783,0.000000
91.699117,-11917.315666,518.144159,8120.612279
91.699443,-13027.624579,-1554.432478,3907.087040
91.699769,-7031.956449,-3182.885551,-2834.553343
91.700096,-7994.224174,0.000000,1378.971896
91.700422,-14211.954086,1998.556043,6971.469032
91.700749,-13101.645173,74.020594,306.438199
91.701075,-6143.709319,296.082377,-6818.249932
91.701401,-7031.956449,2146.597232,-2604.724693
91.701728,-12583.501014,1628.453072,1991.848295
91.702054,-8586.388927,-1998.556043,-3600.648841
91.702381,-4219.173869,-1258.350101,-3983.696590
91.702707,-8512.368333,1998.556043,5592.497135
91.703033,-13989.892304,296.082377,8503.660028
91.703360,-9770.718434,-2146.597232,-1378.971896
91.703686,-6661.853478,-1332.370696,-4443.353888
91.704013,-11177.109724,1184.329507,2757.943793
91.704339,-13101.645173,1036.288319,2987.772442
91.704665,-5699.585753,-296.082377,-4290.134789
91.704992,-4589.276840,1332.370696,-3370.820191
91.705318,-11473.192101,3256.906145,2145.067394
91.705644,-12287.418637,962.267725,-1072.533697
91.705971,-7328.038826,-1036.288319,-8273.831378
91.706297,-7402.059420,296.082377,-3600.648841
91.706624,-12879.583391,888.247130,7354.516781
91.706950,-10955.047942,-1702.473667,5975.544884
91.707276,-5181.441594,-3108.864956,0.000000
91.707603,-7698.141797,222.061783,3217.601092
91.707929,-14730.098246,2146.597232,4443.353888
91.708256,-11991.336260,-148.041188,-4060.306139
91.708582,-5033.400406,-592.164754,-9346.365076
91.708908,-6291.750507,1628.453072,-1608.800546
91.709235,-11325.150913,1776.494261,3830.477490
91.709561,-8882.471304,-592.164754,-842.705048
91.709888,-6513.812290,296.082377,-1608.800546
91.710214,-11473.192101,2442.679609,5286.058936
91.710540,-15914.427753,740.205942,5209.449386
91.710867,-10140.821405,-2146.597232,-2834.553343
91.711193,-6957.935855,-666.185348,-2681.334243
91.711519,-10436.903782,444.123565,7048.078582
91.711846,-11695.253884,0.000000,5898.935335
91.712172,-5551.544565,-1554.432478,-2528.115143
91.712499,-3849.070898,666.185348,-4060.306139
91.712825,-11251.130318,2886.803174,459.657299
91.713151,-13989.892304,1258.350101,-3600.648841
91.713478,-7402.059420,-1406.391290,-9039.926876
91.713804,-6069.688724,-518.144159,-1149.143247
91.714131,-10807.006753,-962.267725,9882.631924
91.714457,-10362.883188,-2072.576638,7814.174080
91.714783,-6439.791695,-2664.741391,919.314598
91.715110,-9326.594869,814.226536,3370.820191
91.715436,-15100.201217,2368.659014,4366.744339
91.715763,-12435.459826,0.000000,-5515.887586
91.716089,-6143.709319,0.000000,-9729.412825
91.716415,-7476.080014,2368.659014,-2987.772442
91.716742,-10658.965565,1702.473667,2757.943793
91.717068,-7624.121203,-2738.761985,-1455.581446
91.717394,-3849.070898,-1480.411884,-3217.601092
91.717721,-9770.718434,1184.329507,4443.353888
91.718047,-15470.304188,740.205942,4826.401637
91.718374,-10807.006753,-1702.473667,-2451.505594
91.718700,-8290.306550,-1554.432478,-2451.505594
91.719026,-11399.171507,1480.411884,4903.011187
91.719353,-11843.295072,148.041188,4673.182538
91.719679,-5181.441594,-666.185348,-4519.963438
91.720006,-4737.318029,1850.514855,-4673.182538
91.720332,-12583.501014,3552.988522,842.705048
91.720658,-14211.954086,666.185348,-2298.286494
91.720985,-6883.915261,-1110.308913,-6894.859482
91.721311,-6661.853478,370.102971,536.266849
91.721638,-12953.603985,222.061783,9652.803275
91.721964,-11621.233289,-2738.761985,5132.839837
91.722290,-5403.503377,-3330.926739,-1532.190996
91.722617,-6439.791695,370.102971,1762.019645
91.722943,-12953.603985,2590.720797,2834.553343
91.723269,-12287.418637,814.226536,-5362.668486
91.723596,-5995.668130,0.000000,-9729.412825
91.723922,-7105.977043,2146.597232,0.000000
91.724249,-10807.006753,962.267725,4903.011187
91.724575,-7550.100608,-1258.350101,-612.876398
91.724901,-5477.523971,148.041188,-2604.724693
91.725228,-10955.047942,2294.638420,5286.058936
91.725554,-15914.427753,740.205942,6435.202183
91.725881,-10436.903782,-1258.350101,-3217.601092
91.726207,-7254.018232,-814.226536,-3064.381992
91.726533,-11917.315666,1036.288319,6281.983084
91.726860,-11695.253884,-740.205942,4903.011187
91.727186,-4885.359217,-2368.659014,-3294.210641
91.727513,-4071.132681,814.226536,-3217.601092
91.727839,-11473.192101,3256.906145,1072.533697
91.728165,-13175.665768,1036.288319,-2221.676944
91.728492,-7105.977043,-1036.288319,-8963.317327
91.728818,-6513.812290,0.000000,-1225.752797
91.729144,-12583.501014,518.144159,8427.050478
91.729471,-11399.171507,-1776.494261,5898.935335
91.729797,-5773.606348,-2294.638420,-1225.752797
91.730124,-9104.533087,296.082377,3370.820191
91.730450,-15174.221811,2146.597232,5209.449386
91.730776,-12435.459826,-74.020594,-4443.353888
91.731103,-5625.565159,148.041188,-8273.831378
91.731429,-7254.018232,2368.659014,-766.095498
91.731756,-11103.089130,1406.391290,3370.820191
91.732082,-7772.162391,-2516.700203,-3983.696590
91.732408,-4293.194464,-1184.329507,-4979.620737
91.732735,-10288.862594,1406.391290,2834.553343
91.733061,-15026.180623,370.102971,4596.572988
91.733388,-9326.594869,-2516.700203,-2221.676944
91.733714,-6439.791695,-1406.391290,-1838.629195
91.734040,-11399.171507,370.102971,6205.373534
91.734367,-11991.336260,-444.123565,4366.744339
91.734693,-5551.544565,-1110.308913,-4596.572988
91.735019,-6143.709319,1850.514855,-3677.258390
91.735346,-13471.748144,3849.070898,2451.505594
91.735672,-13027.624579,1110.308913,-1532.190996
91.735999,-6143.709319,-888.247130,-7814.174080
91.736325,-6365.771101,444.123565,-766.095498
91.736651,-12509.480420,-518.144159,8427.050478
91.736978,-11251.130318,-2960.823768,5439.278036
91.737304,-5847.626942,-2812.782580,306.438199
91.737630,-8364.327145,1554.432478,4979.620737
91.737957,-15248.242405,2442.679609,5132.839837
91.738283,-11991.336260,-518.144159,-5975.544884
91.738610,-6143.709319,-296.082377,-10265.679673
91.738936,-7920.203579,1406.391290,-842.705048
91.739262,-9992.780217,888.247130,5209.449386
91.739589,-5773.606348,-1406.391290,153.219100
91.739915,-4663.297435,148.041188,-689.485948
91.740242,-11251.130318,2516.700203,4366.744339
91.740568,-16580.613101,444.123565,2987.772442
91.740894,-9992.780217,-2368.659014,-5362.668486
91.741221,-7105.977043,-592.164754,-2298.286494
91.741547,-11177.109724,1036.288319,9116.536426
91.741873,-11325.150913,-518.144159,7584.345430
91.742200,-4737.318029,-1406.391290,-2374.896044
91.742526,-4737.318029,666.185348,-5056.230287
91.742853,-11991.336260,3330.926739,-2221.676944
91.743179,-13693.809927,888.247130,-6588.421283
91.743505,-6069.688724,-1184.329507,-9806.022374
91.743832,-5995.668130,444.123565,1762.019645
91.744158,-12361.439231,740.205942,11568.042020
91.744484,-11177.109724,-1850.514855,6665.030833
91.744811,-6439.791695,-2072.576638,-1685.410096
91.745137,-9696.697840,1332.370696,1455.581446
91.745464,-15396.283594,2220.617826,2528.115143
91.745790,-11769.274478,0.000000,-5515.887586
91.746116,-5107.421000,74.020594,-7584.345430
91.746443,-6809.894666,2442.679609,1225.752797
91.746769,-11621.233289,1406.391290,4060.306139
91.747096,-7698.141797,-2368.659014,-4213.525239
91.747422,-4441.235652,-888.247130,-6511.811733
91.747748,-11177.109724,1184.329507,3753.867940
91.748075,-15174.221811,0.000000,5822.325785
91.748401,-9030.512492,-2294.638420,-919.314598
91.748727,-6809.894666,-1702.473667,1225.752797
91.749054,-11843.295072,296.082377,7967.393179
91.749380,-11251.130318,-666.185348,3907.087040
91.749707,-5477.523971,-962.267725,-6818.249932
91.750033,-5699.585753,2294.638420,-5669.106685
91.750359,-13397.727550,3552.988522,1685.410096
91.750686,-13619.789333,814.226536,-2298.286494
91.751012,-5403.503377,-888.247130,-7277.907231
91.751339,-7105.977043,740.205942,766.095498
91.751665,-13693.809927,-296.082377,8886.707777
91.751991,-11177.109724,-3923.091493,4596.572988
91.752318,-4589.276840,-3182.885551,76.609550
91.752644,-7254.018232,518.144159,4519.963438
91.752970,-14508.036463,1924.535449,5286.058936
91.753297,-11177.109724,-296.082377,-4903.011187
91.753623,-5107.421000,-296.082377,-9959.241474
91.753950,-8808.450710,2368.659014,-1072.533697
91.754276,-11843.295072,1332.370696,2834.553343
91.754602,-7031.956449,-814.226536,-2681.334243
91.754929,-4589.276840,592.164754,-2221.676944
91.755255,-10732.986159,1850.514855,6741.640382
91.755581,-16358.551318,-444.123565,6052.154434
91.755908,-9844.739029,-2368.659014,-2681.334243
91.756234,-7476.080014,74.020594,-459.657299
91.756561,-12213.398043,1184.329507,8656.879127
91.756887,-11843.295072,-592.164754,4136.915689
91.757213,-5403.503377,-1258.350101,-5515.887586
91.757540,-4737.318029,1184.329507,-6052.154434
91.757866,-11547.212695,3552.988522,0.000000
91.758193,-12361.439231,1110.308913,-4519.963438
91.758519,-5255.462188,-370.102971,-8580.269578
91.758845,-6809.894666,518.144159,919.314598
91.759172,-12805.562797,444.123565,9576.193725
91.759498,-11177.109724,-1332.370696,4979.620737
91.759824,-6217.729913,-2294.638420,-995.924147
91.760151,-8956.491898,888.247130,3830.477490
91.760477,-15174.221811,2368.659014,4596.572988
91.760804,-11103.089130,222.061783,-4979.620737
91.761130,-4441.235652,0.000000,-8886.707777
91.761456,-8512.368333,2294.638420,-1072.533697
91.761783,-12953.603985,518.144159,3064.381992
91.762109,-7402.059420,-2812.782580,-3140.991542
91.762435,-3627.009116,-1258.350101,-2374.896044
91.762762,-9844.739029,1628.453072,7277.907231
91.763088,-15766.386565,370.102971,5515.887586
91.763415,-9474.636058,-2812.782580,-3907.087040
91.763741,-7105.977043,-1554.432478,-2757.943793
91.764067,-12583.501014,1036.288319,6741.640382
91.764394,-11473.192101,0.000000,4596.572988
91.764720,-4885.359217,-592.164754,-3830.477490
91.765047,-5625.565159,1480.411884,-1762.019645
91.765373,-13249.686362,3701.029710,2911.162892
91.765699,-13397.727550,444.123565,-2834.553343
91.766026,-6513.812290,-1258.350101,-9422.974625
91.766352,-7846.182985,740.205942,-153.219100
91.766678,-13101.645173,-444.123565,9499.584175
91.767005,-9178.553681,-3108.864956,4826.401637
91.767331,-4367.215058,-3256.906145,-766.095498
91.767658,-9326.594869,148.041188,4596.572988
91.767984,-15544.324782,1850.514855,4596.572988
91.768310,-10584.944971,-148.041188,-5515.887586
91.768637,-3997.112087,962.267725,-9576.193725
91.768963,-7550.100608,1998.556043,-1225.752797
91.769290,-11177.109724,666.185348,3140.991542
91.769616,-6809.894666,-888.247130,-3064.381992
91.769942,-4737.318029,74.020594,-2068.457845
91.770269,-11843.295072,3034.844362,7277.907231
91.770595,-15988.448347,740.205942,5362.668486
91.770921,-9474.636058,-1480.411884,-3600.648841
91.771248,-7772.162391,0.000000,-1991.848295
91.771574,-12953.603985,962.267725,7201.297681
91.771901,-11769.274478,-962.267725,4596.572988
91.772227,-4663.297435,-888.247130,-3524.039291
91.772553,-4071.132681,1332.370696,-2987.772442
91.772880,-11473.192101,3182.885551,536.266849
91.773206,-12879.583391,296.082377,-5286.058936
91.773532,-5921.647536,-814.226536,-11031.775171
91.773859,-6587.832884,296.082377,-1378.971896
91.774185,-12879.583391,-296.082377,9499.584175
91.774512,-10066.800811,-1850.514855,6052.154434
91.774838,-5847.626942,-1406.391290,1225.752797
91.775164,-11029.068536,1850.514855,5592.497135
91.775491,-16580.613101,2368.659014,4903.011187
91.775817,-12213.398043,0.000000,-6435.202183
91.776144,-4885.359217,444.123565,-9346.365076
91.776470,-6957.935855,2368.659014,-689.485948
91.776796,-11029.068536,518.144159,4673.182538
91.777123,-6291.750507,-2368.659014,-2068.457845
91.777449,-3775.050304,-814.226536,-2528.115143
91.777775,-10955.047942,1702.473667,5286.058936
91.778102,-15544.324782,-518.144159,3677.258390
91.778428,-9622.677246,-2664.741391,-4290.134789
91.778755,-7772.162391,-1110.308913,-306.438199
91.779081,-12583.501014,1258.350101,9806.022374
91.779407,-10658.965565,0.000000,5209.449386
91.779734,-3997.112087,-296.082377,-5669.106685
91.780060,-6587.832884,2220.617826,-5822.325785
91.780386,-14211.954086,2664.741391,-842.705048
91.780713,-12435.459826,0.000000,-3830.477490
91.781039,-4737.318029,-1924.535449,-6128.763984
91.781366,-6809.894666,814.226536,5209.449386
91.781692,-13619.789333,592.164754,12257.527968
