#time,accel_x,accel_y,accel_z
1367.879672,-9400.615463,370.102971,76.609550
1367.879998,-9252.574275,74.020594,0.000000
1367.880323,-9474.636058,444.123565,153.219100
1367.880649,-9326.594869,0.000000,153.219100
1367.880974,-9326.594869,0.000000,153.219100
1367.881299,-9178.553681,0.000000,153.219100
1367.881625,-9844.739029,370.102971,0.000000
1367.881950,-9400.615463,0.000000,153.219100
1367.882276,-9252.574275,370.102971,0.000000
1367.882601,-9474.636058,74.020594,383.047749
1367.882927,-9326.594869,74.020594,689.485948
1367.883252,-9400.615463,74.020594,229.828649
1367.883577,-9548.656652,148.041188,229.828649
1367.883903,-9400.615463,148.041188,0.000000
1367.884228,-9474.636058,148.041188,0.000000
1367.884554,-9252.574275,0.000000,153.219100
1367.884879,-9252.574275,0.000000,306.438199
1367.885204,-9326.594869,370.102971,0.000000
1367.885530,-9252.574275,74.020594,0.000000
1367.885855,-9400.615463,296.082377,-536.266849
1367.886181,-9326.594869,222.061783,0.000000
1367.886506,-9326.594869,74.020594,0.000000
1367.886832,-9474.636058,222.061783,612.876398
1367.887157,-9326.594869,296.082377,0.000000
1367.887482,-9474.636058,296.082377,0.000000
1367.887808,-9326.594869,0.000000,0.000000
1367.888133,-9474.636058,222.061783,0.000000
1367.888459,-9326.594869,148.041188,0.000000
1367.888784,-9400.615463,296.082377,0.000000
1367.889110,-9474.636058,0.000000,383.047749
1367.889435,-9474.636058,370.102971,76.609550
1367.889760,-9474.636058,74.020594,0.000000
1367.890086,-9326.594869,0.000000,0.000000
1367.890411,-9474.636058,0.000000,153.219100
1367.890737,-9400.615463,74.020594,0.000000
1367.891062,-9326.594869,296.082377,76.609550
1367.891387,-9474.636058,0.000000,459.657299
1367.891713,-9178.553681,222.061783,0.000000
1367.892038,-9474.636058,296.082377,0.000000
1367.892364,-9474.636058,0.000000,229.828649
1367.892689,-9400.615463,222.061783,153.219100
1367.893015,-9474.636058,370.102971,-76.609550
1367.893340,-9474.636058,74.020594,459.657299
1367.893665,-9400.615463,148.041188,229.828649
1367.893991,-9474.636058,148.041188,383.047749
1367.894316,-9400.615463,222.061783,842.705048
1367.894642,-9622.677246,148.041188,0.000000
1367.894967,-9400.615463,74.020594,153.219100
1367.895293,-9326.594869,222.061783,-306.438199
1367.895618,-9400.615463,148.041188,306.438199
1367.895943,-9474.636058,222.061783,0.000000
1367.896269,-9548.656652,148.041188,229.828649
1367.896594,-9104.533087,-148.041188,76.609550
1367.896920,-9474.636058,74.020594,0.000000
1367.897245,-9400.615463,-444.123565,0.000000
1367.897571,-9104.533087,-74.020594,0.000000
1367.897896,-9696.697840,74.020594,0.000000
1367.898221,-9400.615463,148.041188,153.219100
1367.898547,-9400.615463,148.041188,0.000000
1367.898872,-9178.553681,0.000000,153.219100
1367.899198,-9474.636058,74.020594,76.609550
1367.899523,-9474.636058,74.020594,0.000000
1367.899848,-9474.636058,74.020594,76.609550
1367.900174,-9474.636058,222.061783,0.000000
1367.900499,-9326.594869,148.041188,0.000000
1367.900825,-9326.594869,0.000000,383.047749
1367.901150,-9474.636058,148.041188,0.000000
1367.901476,-9326.594869,148.041188,-459.657299
1367.901801,-9400.615463,222.061783,153.219100
1367.902126,-9400.615463,148.041188,0.000000
1367.902452,-9252.574275,296.082377,0.000000
1367.902777,-9400.615463,74.020594,76.609550
1367.903103,-9548.656652,148.041188,229.828649
1367.903428,-9400.615463,296.082377,0.000000
1367.903754,-9548.656652,0.000000,229.828649
1367.904079,-9400.615463,0.000000,306.438199
1367.904404,-9252.574275,222.061783,0.000000
1367.904730,-9400.615463,0.000000,76.609550
1367.905055,-9474.636058,296.082377,-229.828649
1367.905381,-9696.697840,296.082377,229.828649
1367.905706,-9178.553681,518.144159,459.657299
1367.906031,-9400.615463,296.082377,0.000000
1367.906357,-9252.574275,148.041188,0.000000
1367.906682,-9400.615463,148.041188,0.000000
1367.907008,-9326.594869,0.000000,0.000000
1367.907333,-9252.574275,0.000000,0.000000
1367.907659,-9178.553681,0.000000,306.438199
1367.907984,-9252.574275,444.123565,76.609550
1367.908309,-9326.594869,0.000000,229.828649
1367.908635,-9252.574275,296.082377,0.000000
1367.908960,-9548.656652,148.041188,0.000000
1367.909286,-9400.615463,148.041188,306.438199
1367.909611,-9474.636058,222.061783,0.000000
1367.909937,-9326.594869,222.061783,689.485948
1367.910262,-9474.636058,222.061783,0.000000
1367.910587,-9400.615463,148.041188,0.000000
1367.910913,-9696.697840,0.000000,76.609550
1367.911238,-9326.594869,0.000000,76.609550
1367.911564,-9400.615463,0.000000,76.609550
1367.911889,-9474.636058,222.061783,0.000000
1367.912215,-9326.594869,0.000000,76.609550
1367.912540,-9474.636058,0.000000,229.828649
1367.912865,-9178.553681,592.164754,-153.219100
1367.913191,-9474.636058,222.061783,0.000000
1367.913516,-9400.615463,74.020594,229.828649
1367.913842,-9252.574275,0.000000,0.000000
1367.914167,-9030.512492,-444.123565,383.047749
1367.914492,-9252.574275,222.061783,0.000000
1367.914818,-9326.594869,74.020594,153.219100
1367.915143,-9474.636058,0.000000,306.438199
1367.915469,-9326.594869,0.000000,612.876398
1367.915794,-9252.574275,74.020594,76.609550
1367.916119,-9326.594869,222.061783,0.000000
1367.916445,-9474.636058,222.061783,-153.219100
1367.916770,-9474.636058,0.000000,-229.828649
1367.917096,-9030.512492,0.000000,306.438199
1367.917421,-9326.594869,0.000000,76.609550
1367.917747,-9326.594869,74.020594,76.609550
1367.918072,-9548.656652,74.020594,0.000000
1367.918397,-9252.574275,74.020594,306.438199
1367.918723,-9474.636058,296.082377,0.000000
1367.919048,-9474.636058,148.041188,0.000000
1367.919374,-9474.636058,74.020594,-229.828649
1367.919699,-9474.636058,148.041188,0.000000
1367.920024,-9548.656652,296.082377,0.000000
1367.920350,-9252.574275,0.000000,76.609550
1367.920675,-9474.636058,0.000000,383.047749
1367.921001,-9178.553681,148.041188,76.609550
1367.921326,-9400.615463,370.102971,306.438199
1367.921652,-9326.594869,0.000000,153.219100
1367.921977,-9474.636058,444.123565,0.000000
1367.922302,-9326.594869,0.000000,229.828649
1367.922628,-9474.636058,518.144159,-306.438199
1367.922953,-9474.636058,148.041188,0.000000
1367.923279,-9474.636058,370.102971,-229.828649
1367.923604,-9548.656652,0.000000,76.609550
1367.923929,-9548.656652,74.020594,0.000000
1367.924255,-9252.574275,74.020594,76.609550
1367.924580,-9474.636058,0.000000,306.438199
1367.924906,-9326.594869,0.000000,76.609550
1367.925231,-9400.615463,370.102971,0.000000
1367.925557,-9030.512492,0.000000,0.000000
1367.925882,-9252.574275,74.020594,0.000000
1367.926207,-9400.615463,0.000000,0.000000
1367.926533,-9252.574275,148.041188,0.000000
1367.926858,-9474.636058,148.041188,229.828649
1367.927184,-9622.677246,74.020594,383.047749
1367.927509,-9400.615463,148.041188,0.000000
1367.927834,-9326.594869,222.061783,0.000000
1367.928160,-9474.636058,0.000000,306.438199
1367.928485,-9474.636058,444.123565,0.000000
1367.928811,-9252.574275,0.000000,383.047749
1367.929136,-9252.574275,148.041188,0.000000
1367.929462,-9474.636058,74.020594,76.609550
1367.929787,-8956.491898,74.020594,0.000000
1367.930112,-9326.594869,148.041188,0.000000
1367.930438,-9622.677246,222.061783,-153.219100
1367.930763,-9696.697840,222.061783,459.657299
1367.931089,-9326.594869,0.000000,76.609550
1367.931414,-9622.677246,222.061783,76.609550
1367.931739,-9326.594869,0.000000,0.000000
1367.932065,-9400.615463,0.000000,229.828649
1367.932390,-9178.553681,0.000000,76.609550
1367.932716,-9030.512492,444.123565,-306.438199
1367.933041,-9548.656652,222.061783,-229.828649
1367.933367,-9400.615463,0.000000,153.219100
1367.933692,-9548.656652,74.020594,306.438199
1367.934017,-9696.697840,296.082377,0.000000
1367.934343,-9474.636058,222.061783,76.609550
1367.934668,-9400.615463,0.000000,306.438199
1367.934994,-9252.574275,148.041188,76.609550
1367.935319,-9548.656652,74.020594,153.219100
1367.935644,-9326.594869,370.102971,76.609550
1367.935970,-9548.656652,296.082377,0.000000
1367.936295,-9474.636058,148.041188,153.219100
1367.936621,-9770.718434,0.000000,0.000000
1367.936946,-9474.636058,222.061783,-306.438199
1367.937272,-9474.636058,74.020594,0.000000
1367.937597,-9622.677246,74.020594,306.438199
1367.937922,-9400.615463,148.041188,459.657299
1367.938248,-9548.656652,0.000000,0.000000
1367.938573,-9474.636058,148.041188,306.438199
1367.938899,-9622.677246,0.000000,229.828649
1367.939224,-9474.636058,0.000000,306.438199
1367.939549,-9548.656652,222.061783,0.000000
1367.939875,-9400.615463,222.061783,0.000000
1367.940200,-9474.636058,222.061783,0.000000
1367.940526,-9252.574275,0.000000,229.828649
1367.940851,-9474.636058,0.000000,153.219100
1367.941176,-9030.512492,148.041188,-306.438199
1367.941502,-9474.636058,0.000000,306.438199
1367.941827,-9400.615463,0.000000,459.657299
1367.942153,-9474.636058,74.020594,459.657299
1367.942478,-9474.636058,148.041188,-229.828649
1367.942804,-9474.636058,0.000000,153.219100
1367.943129,-9326.594869,296.082377,0.000000
1367.943454,-9178.553681,148.041188,0.000000
1367.943780,-9474.636058,74.020594,-306.438199
1367.944105,-9252.574275,296.082377,-306.438199
1367.944431,-9252.574275,148.041188,153.219100
1367.944756,-9400.615463,0.000000,229.828649
1367.945081,-9400.615463,222.061783,229.828649
1367.945407,-9104.533087,222.061783,612.876398
1367.945732,-9400.615463,148.041188,0.000000
1367.946058,-9474.636058,74.020594,-153.219100
1367.946383,-9474.636058,370.102971,0.000000
1367.946709,-9400.615463,222.061783,153.219100
1367.947034,-9326.594869,148.041188,0.000000
1367.947359,-9252.574275,74.020594,153.219100
1367.947685,-9474.636058,296.082377,153.219100
1367.948010,-9252.574275,148.041188,76.609550
1367.948336,-9474.636058,444.123565,-76.609550
1367.948661,-9622.677246,296.082377,0.000000
1367.948986,-9326.594869,74.020594,0.000000
1367.949312,-9252.574275,148.041188,76.609550
1367.949637,-9252.574275,296.082377,153.219100
1367.949963,-9474.636058,222.061783,459.657299
1367.950288,-9326.594869,0.000000,0.000000
1367.950614,-9400.615463,222.061783,0.000000
1367.950939,-9400.615463,0.000000,0.000000
1367.951264,-9474.636058,222.061783,153.219100
1367.951590,-9548.656652,148.041188,76.609550
1367.951915,-9474.636058,222.061783,0.000000
1367.952241,-9252.574275,0.000000,0.000000
1367.952566,-9400.615463,148.041188,612.876398
1367.952891,-9400.615463,370.102971,0.000000
1367.953217,-9696.697840,0.000000,0.000000
1367.953542,-9474.636058,0.000000,153.219100
1367.953868,-9178.553681,222.061783,76.609550
1367.954193,-9178.553681,74.020594,0.000000
1367.954519,-9400.615463,0.000000,229.828649
1367.954844,-9326.594869,0.000000,0.000000
1367.955169,-9474.636058,222.061783,0.000000
1367.955495,-9474.636058,74.020594,229.828649
1367.955820,-9474.636058,148.041188,-306.438199
1367.956146,-9474.636058,0.000000,229.828649
1367.956471,-9252.574275,148.041188,459.657299
1367.956796,-9104.533087,444.123565,0.000000
1367.957122,-9326.594869,0.000000,0.000000
1367.957447,-9474.636058,0.000000,0.000000
1367.957773,-9474.636058,148.041188,76.609550
1367.958098,-9548.656652,0.000000,-459.657299
1367.958424,-9622.677246,296.082377,0.000000
1367.958749,-9326.594869,222.061783,0.000000
1367.959074,-9326.594869,0.000000,229.828649
1367.959400,-9326.594869,74.020594,153.219100
1367.959725,-9252.574275,370.102971,76.609550
1367.960051,-9400.615463,0.000000,153.219100
1367.960376,-9178.553681,0.000000,0.000000
1367.960701,-9400.615463,370.102971,0.000000
1367.961027,-9178.553681,0.000000,-229.828649
1367.961352,-9474.636058,0.000000,0.000000
1367.961678,-9474.636058,222.061783,76.609550
1367.962003,-9400.615463,222.061783,0.000000
1367.962329,-9474.636058,370.102971,0.000000
1367.962654,-9178.553681,74.020594,76.609550
1367.962979,-9548.656652,0.000000,153.219100
1367.963305,-9474.636058,148.041188,0.000000
1367.963630,-9178.553681,148.041188,0.000000
1367.963956,-9030.512492,296.082377,0.000000
1367.964281,-9104.533087,0.000000,0.000000
1367.964606,-9326.594869,0.000000,0.000000
1367.964932,-9474.636058,0.000000,306.438199
1367.965257,-9474.636058,444.123565,0.000000
1367.965583,-9474.636058,0.000000,0.000000
1367.965908,-9696.697840,74.020594,153.219100
1367.966233,-9474.636058,222.061783,153.219100
1367.966559,-9252.574275,74.020594,-229.828649
1367.966884,-9622.677246,0.000000,153.219100
1367.967210,-9326.594869,296.082377,0.000000
1367.967535,-9252.574275,148.041188,153.219100
1367.967861,-9474.636058,370.102971,229.828649
1367.968186,-9030.512492,592.164754,0.000000
1367.968511,-9622.677246,0.000000,0.000000
1367.968837,-9400.615463,0.000000,76.609550
1367.969162,-9474.636058,148.041188,76.609550
1367.969488,-9474.636058,296.082377,0.000000
1367.969813,-9474.636058,74.020594,0.000000
1367.970138,-9474.636058,74.020594,0.000000
1367.970464,-9474.636058,74.020594,153.219100
1367.970789,-9548.656652,74.020594,0.000000
1367.971115,-9474.636058,222.061783,0.000000
1367.971440,-9400.615463,0.000000,383.047749
1367.971766,-9326.594869,74.020594,76.609550
1367.972091,-9400.615463,74.020594,153.219100
1367.972416,-8808.450710,74.020594,153.219100
1367.972742,-9400.615463,148.041188,0.000000
1367.973067,-9400.615463,296.082377,-383.047749
1367.973393,-9474.636058,0.000000,306.438199
1367.973718,-9474.636058,296.082377,229.828649
1367.974043,-9474.636058,0.000000,76.609550
1367.974369,-9474.636058,0.000000,229.828649
1367.974694,-9474.636058,74.020594,0.000000
1367.975020,-9474.636058,74.020594,0.000000
1367.975345,-9622.677246,370.102971,229.828649
1367.975671,-9474.636058,74.020594,383.047749
1367.975996,-9400.615463,222.061783,0.000000
1367.976321,-9252.574275,148.041188,0.000000
1367.976647,-9104.533087,222.061783,0.000000
1367.976972,-9474.636058,0.000000,0.000000
1367.977298,-9474.636058,0.000000,0.000000
1367.977623,-9030.512492,0.000000,0.000000
1367.977948,-9326.594869,148.041188,383.047749
1367.978274,-9326.594869,0.000000,153.219100
1367.978599,-9474.636058,222.061783,229.828649
1367.978925,-9474.636058,222.061783,-153.219100
1367.979250,-9696.697840,74.020594,0.000000
1367.979576,-9178.553681,222.061783,0.000000
1367.979901,-9474.636058,222.061783,153.219100
1367.980226,-9400.615463,148.041188,306.438199
1367.980552,-9400.615463,296.082377,0.000000
1367.980877,-9326.594869,296.082377,76.609550
1367.981203,-9548.656652,148.041188,153.219100
1367.981528,-9400.615463,0.000000,0.000000
1367.981853,-9400.615463,0.000000,153.219100
1367.982179,-9474.636058,148.041188,0.000000
1367.982504,-9474.636058,148.041188,0.000000
1367.982830,-9400.615463,296.082377,-306.438199
1367.983155,-9252.574275,74.020594,0.000000
1367.983481,-9474.636058,0.000000,0.000000
1367.983806,-9548.656652,592.164754,76.609550
1367.984131,-9622.677246,0.000000,76.609550
1367.984457,-9326.594869,296.082377,306.438199
1367.984782,-9326.594869,222.061783,153.219100
1367.985108,-9474.636058,814.226536,459.657299
1367.985433,-9252.574275,74.020594,0.000000
1367.985758,-9474.636058,74.020594,0.000000
1367.986084,-9326.594869,0.000000,153.219100
1367.986409,-9326.594869,148.041188,0.000000
1367.986735,-9400.615463,74.020594,306.438199
1367.987060,-9400.615463,148.041188,229.828649
1367.987386,-9400.615463,148.041188,0.000000
1367.987711,-9474.636058,222.061783,0.000000
1367.988036,-9474.636058,592.164754,0.000000
1367.988362,-9474.636058,74.020594,76.609550
1367.988687,-9474.636058,0.000000,229.828649
1367.989013,-9178.553681,0.000000,153.219100
1367.989338,-9548.656652,222.061783,383.047749
1367.989663,-9474.636058,444.123565,0.000000
1367.989989,-9474.636058,0.000000,229.828649
1367.990314,-9030.512492,0.000000,-459.657299
1367.990640,-9696.697840,148.041188,0.000000
1367.990965,-9252.574275,0.000000,0.000000
1367.991290,-9474.636058,444.123565,0.000000
1367.991616,-9252.574275,296.082377,0.000000
1367.991941,-9474.636058,0.000000,0.000000
1367.992267,-9030.512492,222.061783,153.219100
1367.992592,-9474.636058,0.000000,76.609550
1367.992918,-9400.615463,0.000000,229.828649
1367.993243,-9400.615463,74.020594,153.219100
1367.993568,-9400.615463,-148.041188,229.828649
1367.993894,-9474.636058,0.000000,229.828649
1367.994219,-9622.677246,222.061783,0.000000
1367.994545,-9400.615463,0.000000,76.609550
1367.994870,-9326.594869,0.000000,306.438199
1367.995195,-9178.553681,296.082377,-306.438199
1367.995521,-9178.553681,148.041188,76.609550
1367.995846,-9400.615463,370.102971,0.000000
1367.996172,-9474.636058,74.020594,306.438199
1367.996497,-9474.636058,666.185348,0.000000
1367.996823,-9474.636058,148.041188,153.219100
1367.997148,-9326.594869,148.041188,-306.438199
1367.997473,-9474.636058,74.020594,306.438199
1367.997799,-9548.656652,74.020594,229.828649
1367.998124,-9622.677246,296.082377,76.609550
1367.998450,-9326.594869,74.020594,0.000000
1367.998775,-9474.636058,296.082377,153.219100
1367.999100,-9326.594869,0.000000,-306.438199
1367.999426,-9474.636058,222.061783,76.609550
1367.999751,-9400.615463,0.000000,383.047749
1368.000077,-9400.615463,0.000000,76.609550
1368.000402,-9548.656652,74.020594,306.438199
1368.000728,-9400.615463,370.102971,76.609550
1368.001053,-9474.636058,222.061783,0.000000
1368.001378,-9400.615463,74.020594,0.000000
1368.001704,-9474.636058,0.000000,0.000000
1368.002029,-9474.636058,0.000000,-229.828649
1368.002355,-9326.594869,0.000000,306.438199
1368.002680,-9252.574275,222.061783,0.000000
1368.003005,-9474.636058,148.041188,-153.219100
1368.003331,-9252.574275,0.000000,0.000000
1368.003656,-9252.574275,296.082377,306.438199
1368.003982,-9326.594869,0.000000,153.219100
1368.004307,-9400.615463,222.061783,0.000000
1368.004633,-9474.636058,0.000000,76.609550
1368.004958,-9252.574275,148.041188,0.000000
1368.005283,-9474.636058,0.000000,383.047749
1368.005609,-9474.636058,0.000000,153.219100
1368.005934,-9474.636058,74.020594,0.000000
1368.006260,-9252.574275,148.041188,153.219100
1368.006585,-9548.656652,148.041188,0.000000
1368.006910,-9326.594869,0.000000,306.438199
1368.007236,-9326.594869,148.041188,76.609550
1368.007561,-9474.636058,222.061783,153.219100
1368.007887,-9252.574275,0.000000,383.047749
1368.008212,-9400.615463,0.000000,0.000000
1368.008538,-9474.636058,74.020594,76.609550
1368.008863,-9326.594869,222.061783,-229.828649
1368.009188,-9474.636058,74.020594,153.219100
1368.009514,-9178.553681,148.041188,0.000000
1368.009839,-9326.594869,0.000000,306.438199
1368.010165,-9252.574275,74.020594,0.000000
1368.010490,-9400.615463,74.020594,76.609550
1368.010815,-9770.718434,0.000000,306.438199
1368.011141,-9326.594869,148.041188,0.000000
1368.011466,-9326.594869,148.041188,306.438199
1368.011792,-9326.594869,74.020594,383.047749
1368.012117,-9326.594869,370.102971,383.047749
1368.012443,-9326.594869,74.020594,0.000000
1368.012768,-9474.636058,222.061783,0.000000
1368.013093,-9474.636058,74.020594,-153.219100
1368.013418,-9622.677246,222.061783,153.219100
1368.013744,-9622.677246,518.144159,0.000000
1368.014069,-9548.656652,74.020594,153.219100
1368.014395,-9252.574275,148.041188,153.219100
1368.014720,-9400.615463,0.000000,0.000000
1368.015045,-9474.636058,222.061783,383.047749
1368.015371,-9548.656652,0.000000,229.828649
1368.015696,-9400.615463,0.000000,0.000000
1368.016022,-9474.636058,148.041188,153.219100
1368.016347,-9696.697840,74.020594,229.828649
1368.016673,-9326.594869,222.061783,0.000000
1368.016998,-9474.636058,148.041188,0.000000
1368.017324,-9178.553681,148.041188,0.000000
1368.017649,-9252.574275,74.020594,76.609550
1368.017975,-9474.636058,0.000000,383.047749
1368.018300,-9252.574275,0.000000,0.000000
1368.018626,-9326.594869,148.041188,76.609550
1368.018951,-9326.594869,0.000000,0.000000
1368.019277,-9696.697840,222.061783,153.219100
1368.019602,-9326.594869,0.000000,153.219100
1368.019928,-9474.636058,444.123565,0.000000
1368.020253,-9178.553681,296.082377,153.219100
1368.020579,-9474.636058,74.020594,229.828649
1368.020904,-9474.636058,296.082377,0.000000
1368.021229,-9474.636058,0.000000,229.828649
1368.021555,-9400.615463,0.000000,0.000000
1368.021880,-9252.574275,0.000000,153.219100
1368.022206,-9474.636058,0.000000,383.047749
1368.022531,-9400.615463,0.000000,229.828649
1368.022857,-9474.636058,0.000000,0.000000
1368.023182,-9326.594869,0.000000,0.000000
1368.023508,-9252.574275,74.020594,689.485948
1368.023833,-9252.574275,74.020594,0.000000
1368.024159,-9474.636058,0.000000,306.438199
1368.024484,-9400.615463,148.041188,0.000000
1368.024810,-9474.636058,222.061783,229.828649
1368.025135,-9326.594869,74.020594,153.219100
1368.025461,-9104.533087,148.041188,0.000000
1368.025786,-9474.636058,296.082377,0.000000
1368.026112,-9252.574275,0.000000,306.438199
1368.026437,-9696.697840,74.020594,76.609550
1368.026762,-9400.615463,0.000000,0.000000
1368.027088,-9252.574275,0.000000,-76.609550
1368.027413,-9474.636058,222.061783,0.000000
1368.027739,-9400.615463,0.000000,919.314598
1368.028064,-9696.697840,222.061783,306.438199
1368.028390,-9474.636058,148.041188,153.219100
1368.028715,-9474.636058,148.041188,0.000000
1368.029041,-9474.636058,74.020594,153.219100
1368.029366,-9474.636058,444.123565,0.000000
1368.029692,-9326.594869,0.000000,0.000000
1368.030017,-9400.615463,148.041188,153.219100
1368.030343,-9326.594869,74.020594,229.828649
1368.030668,-9326.594869,222.061783,459.657299
1368.030994,-9474.636058,148.041188,306.438199
1368.031319,-9178.553681,296.082377,0.000000
1368.031645,-9474.636058,0.000000,153.219100
1368.031970,-9622.677246,0.000000,76.609550
1368.032295,-9252.574275,148.041188,0.000000
1368.032621,-9400.615463,296.082377,0.000000
1368.032946,-9474.636058,370.102971,0.000000
1368.033272,-9252.574275,222.061783,0.000000
1368.033597,-9474.636058,148.041188,0.000000
1368.033923,-9400.615463,148.041188,76.609550
1368.034248,-9696.697840,0.000000,612.876398
1368.034574,-9474.636058,0.000000,76.609550
1368.034899,-9474.636058,222.061783,536.266849
1368.035225,-9400.615463,0.000000,229.828649
1368.035550,-9400.615463,0.000000,229.828649
1368.035876,-9474.636058,0.000000,76.609550
1368.036201,-9548.656652,74.020594,383.047749
1368.036527,-9474.636058,296.082377,-153.219100
1368.036852,-9474.636058,74.020594,306.438199
1368.037178,-9474.636058,0.000000,229.828649
1368.037503,-9400.615463,74.020594,153.219100
1368.037829,-9400.615463,-148.041188,0.000000
1368.038154,-9252.574275,74.020594,0.000000
1368.038479,-9400.615463,74.020594,76.609550
1368.038805,-9400.615463,74.020594,0.000000
1368.039130,-9548.656652,222.061783,76.609550
1368.039456,-9252.574275,74.020594,229.828649
1368.039781,-9252.574275,0.000000,76.609550
1368.040107,-9474.636058,0.000000,229.828649
1368.040432,-9474.636058,74.020594,153.219100
1368.040758,-9400.615463,222.061783,0.000000
1368.041083,-9400.615463,74.020594,306.438199
1368.041409,-9622.677246,74.020594,383.047749
1368.041734,-9326.594869,148.041188,306.438199
1368.042060,-9178.553681,-518.144159,0.000000
1368.042385,-9474.636058,148.041188,0.000000
1368.042711,-9400.615463,148.041188,306.438199
1368.043036,-9326.594869,148.041188,-76.609550
1368.043362,-9326.594869,444.123565,0.000000
1368.043687,-9400.615463,148.041188,0.000000
1368.044012,-9474.636058,0.000000,459.657299
1368.044338,-9474.636058,0.000000,153.219100
1368.044663,-9178.553681,148.041188,153.219100
1368.044989,-9326.594869,0.000000,306.438199
1368.045314,-9474.636058,0.000000,383.047749
1368.045640,-9622.677246,74.020594,76.609550
1368.045965,-9474.636058,74.020594,153.219100
1368.046291,-9252.574275,0.000000,0.000000
1368.046616,-9474.636058,74.020594,76.609550
1368.046942,-9548.656652,74.020594,0.000000
1368.047267,-9252.574275,0.000000,76.609550
1368.047593,-9252.574275,370.102971,0.000000
1368.047918,-9326.594869,222.061783,229.828649
1368.048244,-9474.636058,222.061783,76.609550
1368.048569,-9548.656652,222.061783,0.000000
1368.048895,-9474.636058,0.000000,459.657299
1368.049220,-9474.636058,0.000000,229.828649
1368.049546,-9400.615463,74.020594,0.000000
1368.049871,-9326.594869,0.000000,306.438199
1368.050196,-9474.636058,148.041188,383.047749
1368.050522,-9326.594869,0.000000,0.000000
1368.050847,-9622.677246,74.020594,153.219100
1368.051173,-9474.636058,0.000000,76.609550
1368.051498,-9326.594869,74.020594,0.000000
1368.051824,-9622.677246,74.020594,0.000000
1368.052149,-9400.615463,148.041188,0.000000
1368.052475,-9548.656652,222.061783,229.828649
1368.052800,-9326.594869,74.020594,76.609550
1368.053126,-9474.636058,296.082377,76.609550
1368.053451,-9474.636058,296.082377,229.828649
1368.053777,-9326.594869,74.020594,306.438199
1368.054102,-9474.636058,74.020594,229.828649
1368.054428,-9326.594869,0.000000,306.438199
1368.054753,-9178.553681,0.000000,-76.609550
1368.055079,-9474.636058,0.000000,0.000000
1368.055404,-9400.615463,148.041188,153.219100
1368.055729,-9548.656652,74.020594,0.000000
1368.056055,-9548.656652,148.041188,76.609550
1368.056380,-9474.636058,0.000000,229.828649
1368.056706,-9474.636058,0.000000,76.609550
1368.057031,-9474.636058,0.000000,153.219100
1368.057357,-9474.636058,296.082377,0.000000
1368.057682,-9252.574275,0.000000,0.000000
1368.058008,-9400.615463,222.061783,0.000000
1368.058333,-9474.636058,222.061783,153.219100
1368.058659,-9474.636058,74.020594,153.219100
1368.058984,-9474.636058,518.144159,306.438199
1368.059310,-9326.594869,0.000000,229.828649
1368.059635,-9178.553681,0.000000,76.609550
1368.059961,-9400.615463,296.082377,0.000000
1368.060286,-9178.553681,0.000000,-153.219100
1368.060612,-9104.533087,148.041188,0.000000
1368.060937,-9696.697840,148.041188,0.000000
1368.061262,-9474.636058,0.000000,76.609550
1368.061588,-9400.615463,222.061783,229.828649
1368.061913,-9400.615463,-518.144159,0.000000
1368.062239,-9474.636058,0.000000,306.438199
1368.062564,-9622.677246,74.020594,306.438199
1368.062890,-9326.594869,222.061783,76.609550
1368.063215,-9252.574275,222.061783,0.000000
1368.063541,-9400.615463,74.020594,0.000000
1368.063866,-9474.636058,222.061783,0.000000
1368.064192,-9326.594869,0.000000,76.609550
1368.064517,-9696.697840,296.082377,-153.219100
1368.064843,-9030.512492,0.000000,153.219100
1368.065168,-9474.636058,222.061783,0.000000
1368.065494,-9030.512492,0.000000,306.438199
1368.065819,-9400.615463,0.000000,383.047749
1368.066145,-9326.594869,296.082377,76.609550
1368.066470,-9400.615463,148.041188,0.000000
1368.066796,-9178.553681,222.061783,153.219100
1368.067121,-9400.615463,222.061783,229.828649
1368.067446,-9326.594869,370.102971,0.000000
1368.067772,-9474.636058,222.061783,153.219100
1368.068097,-9474.636058,0.000000,229.828649
1368.068423,-9474.636058,222.061783,0.000000
1368.068748,-9326.594869,0.000000,383.047749
1368.069074,-9104.533087,444.123565,0.000000
1368.069399,-9400.615463,222.061783,229.828649
1368.069725,-9178.553681,0.000000,0.000000
1368.070050,-9326.594869,0.000000,153.219100
1368.070376,-9474.636058,0.000000,0.000000
1368.070701,-9326.594869,74.020594,229.828649
1368.071027,-9474.636058,0.000000,0.000000
1368.071352,-9474.636058,148.041188,0.000000
1368.071678,-9326.594869,222.061783,306.438199
1368.072003,-9548.656652,74.020594,153.219100
1368.072329,-9326.594869,222.061783,153.219100
1368.072654,-9252.574275,0.000000,76.609550
1368.072979,-9252.574275,0.000000,76.609550
1368.073305,-9104.533087,0.000000,-229.828649
1368.073630,-9474.636058,74.020594,0.000000
1368.073956,-9252.574275,0.000000,0.000000
1368.074281,-9474.636058,148.041188,76.609550
1368.074607,-9770.718434,296.082377,0.000000
1368.074932,-9548.656652,148.041188,306.438199
1368.075258,-9474.636058,222.061783,76.609550
1368.075583,-9474.636058,0.000000,306.438199
1368.075909,-9178.553681,74.020594,0.000000
1368.076234,-9474.636058,74.020594,0.000000
1368.076560,-9474.636058,74.020594,0.000000
1368.076885,-9400.615463,222.061783,-76.609550
1368.077211,-9474.636058,0.000000,0.000000
1368.077536,-9474.636058,444.123565,0.000000
1368.077862,-9474.636058,0.000000,306.438199
1368.078187,-9178.553681,148.041188,0.000000
1368.078513,-9474.636058,0.000000,0.000000
1368.078838,-8660.409521,296.082377,-612.876398
1368.079163,-9326.594869,74.020594,306.438199
1368.079489,-9400.615463,74.020594,153.219100
1368.079814,-9548.656652,296.082377,76.609550
1368.080140,-9326.594869,0.000000,0.000000
1368.080465,-9326.594869,0.000000,76.609550
1368.080791,-9252.574275,222.061783,0.000000
1368.081116,-9474.636058,0.000000,0.000000
1368.081442,-9178.553681,0.000000,-306.438199
1368.081767,-9400.615463,0.000000,-153.219100
1368.082093,-9104.533087,0.000000,0.000000
1368.082418,-9474.636058,370.102971,0.000000
1368.082744,-9400.615463,0.000000,229.828649
1368.083069,-9326.594869,296.082377,-536.266849
1368.083395,-9474.636058,0.000000,229.828649
1368.083720,-9548.656652,0.000000,76.609550
1368.084046,-9178.553681,148.041188,0.000000
1368.084371,-9474.636058,222.061783,0.000000
1368.084696,-9104.533087,148.041188,76.609550
1368.085022,-9400.615463,222.061783,0.000000
1368.085347,-9474.636058,0.000000,0.000000
1368.085673,-9400.615463,0.000000,153.219100
1368.085998,-9400.615463,444.123565,-229.828649
1368.086324,-9548.656652,74.020594,383.047749
1368.086649,-9474.636058,148.041188,0.000000
1368.086975,-9622.677246,0.000000,0.000000
1368.087300,-9696.697840,148.041188,229.828649
1368.087626,-9696.697840,222.061783,0.000000
1368.087951,-9548.656652,0.000000,76.609550
1368.088277,-9400.615463,296.082377,0.000000
1368.088602,-9474.636058,296.082377,0.000000
1368.088928,-9326.594869,74.020594,76.609550
1368.089253,-9474.636058,370.102971,0.000000
1368.089579,-9474.636058,222.061783,153.219100
1368.089904,-9326.594869,0.000000,0.000000
1368.090230,-9992.780217,148.041188,-306.438199
1368.090555,-9474.636058,0.000000,153.219100
1368.090880,-9474.636058,74.020594,0.000000
1368.091206,-9622.677246,0.000000,536.266849
1368.091531,-9474.636058,222.061783,459.657299
1368.091857,-9104.533087,370.102971,306.438199
1368.092182,-9400.615463,296.082377,-459.657299
1368.092508,-9622.677246,74.020594,-76.609550
1368.092833,-9400.615463,74.020594,153.219100
1368.093159,-9252.574275,444.123565,229.828649
1368.093484,-9252.574275,222.061783,153.219100
1368.093810,-9548.656652,74.020594,76.609550
1368.094135,-9400.615463,74.020594,153.219100
1368.094461,-9104.533087,444.123565,0.000000
1368.094786,-9474.636058,222.061783,-153.219100
1368.095112,-9400.615463,222.061783,0.000000
1368.095437,-9696.697840,222.061783,229.828649
1368.095763,-9326.594869,222.061783,0.000000
1368.096088,-9252.574275,222.061783,0.000000
1368.096413,-9474.636058,222.061783,0.000000
1368.096739,-9474.636058,0.000000,0.000000
1368.097064,-9474.636058,296.082377,459.657299
1368.097390,-9178.553681,370.102971,612.876398
1368.097715,-9474.636058,148.041188,306.438199
1368.098041,-9474.636058,0.000000,0.000000
1368.098366,-9474.636058,0.000000,0.000000
1368.098692,-9474.636058,74.020594,0.000000
1368.099017,-9400.615463,296.082377,76.609550
1368.099343,-9178.553681,0.000000,0.000000
1368.099668,-9622.677246,0.000000,229.828649
1368.099994,-9400.615463,74.020594,153.219100
1368.100319,-9104.533087,148.041188,-306.438199
1368.100645,-9326.594869,0.000000,76.609550
1368.100970,-9474.636058,0.000000,229.828649
1368.101296,-9474.636058,0.000000,0.000000
1368.101621,-9622.677246,74.020594,153.219100
1368.101946,-9104.533087,0.000000,153.219100
1368.102272,-9548.656652,222.061783,0.000000
1368.102597,-9400.615463,222.061783,76.609550
1368.102923,-9474.636058,222.061783,-153.219100
1368.103248,-9548.656652,74.020594,0.000000
1368.103574,-9696.697840,222.061783,153.219100
1368.103899,-9178.553681,296.082377,0.000000
1368.104225,-9474.636058,0.000000,153.219100
1368.104550,-9252.574275,0.000000,153.219100
1368.104876,-9622.677246,296.082377,-76.609550
1368.105201,-9474.636058,0.000000,153.219100
1368.105527,-9400.615463,148.041188,0.000000
1368.105852,-9622.677246,370.102971,919.314598
1368.106178,-9252.574275,148.041188,229.828649
1368.106503,-9400.615463,296.082377,76.609550
1368.106829,-9474.636058,222.061783,76.609550
1368.107154,-9474.636058,0.000000,153.219100
1368.107480,-9696.697840,74.020594,76.609550
1368.107805,-9474.636058,0.000000,76.609550
1368.108130,-9474.636058,74.020594,76.609550
1368.108456,-9474.636058,0.000000,0.000000
1368.108781,-9178.553681,148.041188,0.000000
1368.109107,-9622.677246,0.000000,0.000000
1368.109432,-9548.656652,74.020594,153.219100
1368.109758,-9474.636058,0.000000,-76.609550
1368.110083,-9178.553681,74.020594,383.047749
1368.110409,-9178.553681,0.000000,306.438199
1368.110734,-9474.636058,222.061783,306.438199
1368.111060,-9622.677246,370.102971,76.609550
1368.111385,-9474.636058,0.000000,0.000000
1368.111711,-9548.656652,0.000000,-459.657299
1368.112036,-9326.594869,74.020594,229.828649
1368.112362,-9400.615463,148.041188,0.000000
1368.112687,-9474.636058,0.000000,76.609550
1368.113013,-9548.656652,518.144159,612.876398
1368.113338,-9474.636058,74.020594,306.438199
1368.113663,-9400.615463,148.041188,0.000000
1368.113989,-9400.615463,222.061783,0.000000
1368.114314,-9400.615463,0.000000,0.000000
1368.114640,-9474.636058,74.020594,-229.828649
1368.114965,-9474.636058,0.000000,76.609550
1368.115291,-9474.636058,148.041188,229.828649
1368.115617,-9474.636058,74.020594,306.438199
1368.115942,-9326.594869,74.020594,229.828649
1368.116268,-9178.553681,74.020594,76.609550
1368.116593,-9548.656652,0.000000,229.828649
1368.116919,-9252.574275,0.000000,0.000000
1368.117244,-9474.636058,370.102971,0.000000
1368.117570,-9400.615463,148.041188,0.000000
1368.117895,-9400.615463,148.041188,-76.609550
1368.118221,-9474.636058,0.000000,153.219100
1368.118546,-9326.594869,0.000000,459.657299
1368.118872,-9622.677246,148.041188,229.828649
1368.119197,-9548.656652,74.020594,0.000000
1368.119523,-9474.636058,222.061783,153.219100
1368.119848,-9326.594869,296.082377,0.000000
1368.120174,-9326.594869,0.000000,153.219100
1368.120499,-9474.636058,0.000000,76.609550
1368.120825,-9400.615463,148.041188,0.000000
1368.121150,-9400.615463,74.020594,-383.047749
1368.121476,-9104.533087,0.000000,0.000000
1368.121801,-9104.533087,0.000000,0.000000
1368.122127,-9474.636058,0.000000,536.266849
1368.122452,-9548.656652,370.102971,76.609550
1368.122778,-9474.636058,444.123565,0.000000
1368.123103,-9844.739029,370.102971,0.000000
1368.123429,-9474.636058,370.102971,0.000000
1368.123754,-9474.636058,148.041188,-76.609550
1368.124080,-9326.594869,296.082377,-306.438199
1368.124405,-9326.594869,0.000000,153.219100
1368.124731,-9474.636058,222.061783,229.828649
1368.125056,-9474.636058,370.102971,0.000000
1368.125382,-9326.594869,222.061783,-229.828649
1368.125707,-9400.615463,148.041188,459.657299
1368.126033,-9178.553681,74.020594,76.609550
1368.126358,-9474.636058,0.000000,306.438199
1368.126684,-9326.594869,148.041188,0.000000
1368.127009,-9474.636058,74.020594,76.609550
1368.127335,-9474.636058,74.020594,0.000000
1368.127660,-9474.636058,0.000000,0.000000
1368.127986,-9178.553681,0.000000,0.000000
1368.128311,-9252.574275,148.041188,459.657299
1368.128637,-9252.574275,0.000000,919.314598
1368.128962,-9474.636058,296.082377,229.828649
1368.129288,-9326.594869,0.000000,383.047749
1368.129613,-9252.574275,0.000000,0.000000
1368.129939,-9474.636058,148.041188,-229.828649
1368.130265,-9104.533087,0.000000,153.219100
1368.130590,-9400.615463,148.041188,0.000000
1368.130916,-9696.697840,0.000000,0.000000
1368.131241,-9474.636058,148.041188,76.609550
1368.131567,-9252.574275,148.041188,0.000000
1368.131892,-9474.636058,148.041188,0.000000
1368.132218,-9400.615463,0.000000,76.609550
1368.132543,-9400.615463,74.020594,-229.828649
1368.132869,-9252.574275,0.000000,76.609550
1368.133194,-9252.574275,148.041188,0.000000
1368.133520,-9326.594869,0.000000,76.609550
1368.133845,-9252.574275,222.061783,0.000000
1368.134171,-9400.615463,0.000000,153.219100
1368.134496,-9622.677246,74.020594,0.000000
1368.134822,-9326.594869,148.041188,229.828649
1368.135147,-9326.594869,148.041188,0.000000
1368.135473,-9252.574275,444.123565,76.609550
1368.135798,-9622.677246,0.000000,0.000000
1368.136124,-9548.656652,74.020594,0.000000
1368.136449,-9622.677246,148.041188,153.219100
1368.136775,-9400.615463,0.000000,153.219100
1368.137100,-9474.636058,-444.123565,306.438199
1368.137426,-9474.636058,296.082377,76.609550
1368.137751,-9252.574275,0.000000,306.438199
1368.138077,-9252.574275,296.082377,0.000000
1368.138402,-9622.677246,148.041188,-153.219100
1368.138728,-9474.636058,0.000000,0.000000
1368.139053,-9252.574275,0.000000,-153.219100
1368.139379,-9696.697840,148.041188,-153.219100
1368.139704,-9252.574275,0.000000,383.047749
1368.140030,-9104.533087,0.000000,229.828649
1368.140355,-9400.615463,0.000000,229.828649
1368.140681,-9474.636058,222.061783,0.000000
1368.141006,-9622.677246,0.000000,153.219100
1368.141332,-9474.636058,370.102971,-229.828649
1368.141657,-9548.656652,148.041188,306.438199
1368.141983,-9548.656652,148.041188,76.609550
1368.142308,-9326.594869,148.041188,0.000000
1368.142634,-9474.636058,74.020594,229.828649
1368.142959,-9104.533087,74.020594,0.000000
1368.143285,-9474.636058,444.123565,-306.438199
1368.143610,-9178.553681,0.000000,0.000000
1368.143936,-9178.553681,296.082377,229.828649
1368.144261,-9104.533087,222.061783,76.609550
1368.144587,-9400.615463,0.000000,229.828649
1368.144912,-9696.697840,148.041188,229.828649
1368.145238,-9474.636058,0.000000,306.438199
1368.145564,-9400.615463,0.000000,0.000000
1368.145889,-9474.636058,222.061783,0.000000
1368.146215,-9400.615463,222.061783,0.000000
1368.146540,-9326.594869,222.061783,76.609550
1368.146866,-9474.636058,222.061783,153.219100
1368.147191,-9474.636058,0.000000,0.000000
1368.147517,-9474.636058,296.082377,229.828649
1368.147842,-9474.636058,0.000000,306.438199
1368.148168,-9474.636058,370.102971,76.609550
1368.148493,-9178.553681,222.061783,229.828649
1368.148819,-9696.697840,74.020594,0.000000
1368.149144,-9622.677246,0.000000,0.000000
1368.149470,-9400.615463,296.082377,0.000000
1368.149795,-9548.656652,222.061783,153.219100
1368.150121,-9400.615463,74.020594,306.438199
1368.150446,-9400.615463,0.000000,383.047749
1368.150772,-9400.615463,0.000000,76.609550
1368.151097,-9474.636058,222.061783,-383.047749
1368.151423,-9474.636058,296.082377,76.609550
1368.151748,-9326.594869,148.041188,0.000000
1368.152074,-9326.594869,222.061783,0.000000
1368.152399,-9400.615463,0.000000,0.000000
1368.152725,-9178.553681,74.020594,306.438199
1368.153050,-9326.594869,0.000000,536.266849
1368.153376,-9252.574275,0.000000,306.438199
1368.153701,-9474.636058,74.020594,0.000000
1368.154027,-9400.615463,0.000000,153.219100
1368.154352,-9104.533087,0.000000,0.000000
1368.154678,-9178.553681,0.000000,76.609550
1368.155003,-9400.615463,148.041188,153.219100
1368.155329,-9622.677246,444.123565,0.000000
1368.155654,-9252.574275,74.020594,0.000000
1368.155980,-9252.574275,592.164754,0.000000
1368.156305,-9326.594869,0.000000,229.828649
1368.156631,-9474.636058,296.082377,0.000000
1368.156956,-9252.574275,148.041188,-229.828649
1368.157282,-9252.574275,74.020594,0.000000
1368.157607,-9326.594869,148.041188,383.047749
1368.157933,-9178.553681,0.000000,0.000000
1368.158258,-9770.718434,74.020594,0.000000
1368.158584,-9400.615463,370.102971,0.000000
1368.158909,-9474.636058,-74.020594,153.219100
1368.159235,-9474.636058,222.061783,76.609550
1368.159560,-9252.574275,0.000000,153.219100
1368.159886,-9104.533087,444.123565,0.000000
1368.160212,-9252.574275,0.000000,76.609550
1368.160537,-9474.636058,74.020594,153.219100
1368.160863,-9474.636058,296.082377,76.609550
1368.161188,-9474.636058,370.102971,-153.219100
1368.161514,-9474.636058,148.041188,229.828649
1368.161839,-9474.636058,74.020594,153.219100
1368.162165,-9474.636058,296.082377,-229.828649
1368.162490,-9548.656652,222.061783,229.828649
1368.162816,-9178.553681,296.082377,-459.657299
1368.163141,-9326.594869,-296.082377,153.219100
1368.163467,-9474.636058,0.000000,0.000000
1368.163792,-9400.615463,222.061783,0.000000
1368.164118,-9474.636058,148.041188,0.000000
1368.164443,-9178.553681,74.020594,76.609550
1368.164769,-9474.636058,-148.041188,0.000000
1368.165094,-9252.574275,0.000000,0.000000
1368.165420,-9178.553681,222.061783,0.000000
1368.165745,-9030.512492,0.000000,76.609550
1368.166071,-9474.636058,148.041188,0.000000
1368.166396,-9252.574275,0.000000,76.609550
1368.166722,-9696.697840,0.000000,76.609550
1368.167047,-9104.533087,296.082377,76.609550
1368.167373,-9400.615463,222.061783,229.828649
1368.167698,-9474.636058,148.041188,0.000000
1368.168024,-9474.636058,0.000000,76.609550
1368.168349,-9474.636058,0.000000,0.000000
1368.168675,-9252.574275,74.020594,0.000000
1368.169000,-9474.636058,74.020594,0.000000
1368.169326,-9474.636058,74.020594,229.828649
1368.169651,-9474.636058,148.041188,0.000000
1368.169977,-9400.615463,148.041188,229.828649
1368.170302,-9326.594869,0.000000,306.438199
1368.170628,-9326.594869,148.041188,76.609550
1368.170953,-9474.636058,148.041188,76.609550
1368.171279,-9474.636058,296.082377,-306.438199
1368.171604,-9326.594869,222.061783,0.000000
1368.171930,-9622.677246,222.061783,76.609550
1368.172255,-9474.636058,222.061783,0.000000
1368.172581,-9474.636058,518.144159,-612.876398
1368.172906,-9252.574275,0.000000,0.000000
1368.173232,-9474.636058,74.020594,0.000000
1368.173557,-9326.594869,0.000000,76.609550
1368.173883,-9474.636058,148.041188,76.609550
1368.174208,-9696.697840,370.102971,0.000000
1368.174534,-9326.594869,370.102971,0.000000
1368.174859,-9474.636058,0.000000,306.438199
1368.175185,-9400.615463,0.000000,229.828649
1368.175511,-9252.574275,222.061783,-229.828649
1368.175836,-9474.636058,148.041188,-76.609550
1368.176162,-9178.553681,0.000000,153.219100
1368.176487,-9326.594869,0.000000,0.000000
1368.176813,-9400.615463,74.020594,153.219100
1368.177138,-9474.636058,296.082377,76.609550
1368.177464,-9326.594869,74.020594,153.219100
1368.177789,-9474.636058,74.020594,306.438199
1368.178115,-9178.553681,74.020594,0.000000
1368.178440,-9326.594869,370.102971,0.000000
1368.178766,-9326.594869,222.061783,-153.219100
1368.179091,-9400.615463,0.000000,459.657299
1368.179417,-9474.636058,0.000000,229.828649
1368.179742,-9474.636058,296.082377,459.657299
1368.180068,-9474.636058,0.000000,76.609550
1368.180393,-9548.656652,74.020594,0.000000
1368.180719,-9326.594869,74.020594,153.219100
1368.181044,-9326.594869,370.102971,229.828649
1368.181370,-9400.615463,74.020594,306.438199
1368.181695,-9400.615463,148.041188,306.438199
1368.182021,-9326.594869,0.000000,76.609550
1368.182346,-9622.677246,74.020594,76.609550
1368.182672,-9400.615463,74.020594,0.000000
1368.182997,-9252.574275,296.082377,0.000000
1368.183323,-9474.636058,296.082377,-306.438199
1368.183648,-9474.636058,222.061783,-153.219100
1368.183974,-9104.533087,296.082377,229.828649
1368.184299,-9474.636058,74.020594,0.000000
1368.184625,-9400.615463,148.041188,0.000000
1368.184950,-9548.656652,74.020594,0.000000
1368.185276,-9400.615463,74.020594,153.219100
1368.185601,-9030.512492,0.000000,153.219100
1368.185927,-9474.636058,74.020594,306.438199
1368.186252,-9400.615463,222.061783,76.609550
1368.186578,-9326.594869,74.020594,76.609550
1368.186903,-9104.533087,814.226536,0.000000
1368.187229,-9252.574275,148.041188,0.000000
1368.187554,-9400.615463,148.041188,153.219100
1368.187880,-9252.574275,0.000000,0.000000
1368.188205,-9474.636058,370.102971,689.485948
1368.188531,-9622.677246,74.020594,76.609550
1368.188856,-9252.574275,0.000000,0.000000
1368.189182,-9474.636058,0.000000,459.657299
1368.189507,-9252.574275,222.061783,0.000000
1368.189833,-9474.636058,222.061783,0.000000
1368.190159,-9474.636058,222.061783,-76.609550
1368.190484,-9474.636058,0.000000,0.000000
1368.190810,-9326.594869,0.000000,76.609550
1368.191135,-9474.636058,0.000000,76.609550
1368.191461,-9474.636058,74.020594,0.000000
1368.191786,-9400.615463,222.061783,0.000000
1368.192112,-9474.636058,222.061783,0.000000
1368.192437,-9474.636058,74.020594,76.609550
1368.192763,-9474.636058,0.000000,76.609550
1368.193088,-9548.656652,148.041188,0.000000
1368.193414,-9474.636058,222.061783,0.000000
1368.193739,-9474.636058,0.000000,306.438199
1368.194065,-9326.594869,74.020594,229.828649
1368.194390,-9474.636058,222.061783,76.609550
1368.194716,-9252.574275,0.000000,0.000000
1368.195041,-9474.636058,148.041188,0.000000
1368.195367,-9474.636058,222.061783,306.438199
1368.195692,-9400.615463,0.000000,0.000000
1368.196018,-9252.574275,0.000000,0.000000
1368.196343,-9474.636058,0.000000,0.000000
1368.196669,-9474.636058,296.082377,153.219100
1368.196994,-9474.636058,0.000000,459.657299
1368.197320,-9178.553681,0.000000,0.000000
1368.197645,-9622.677246,0.000000,306.438199
1368.197971,-9548.656652,0.000000,229.828649
1368.198296,-10140.821405,370.102971,0.000000
1368.198622,-9252.574275,222.061783,-153.219100
1368.198947,-9474.636058,222.061783,-306.438199
1368.199273,-9326.594869,74.020594,0.000000
1368.199598,-9326.594869,222.061783,306.438199
1368.199924,-9252.574275,0.000000,0.000000
1368.200249,-9400.615463,296.082377,229.828649
1368.200575,-9400.615463,296.082377,153.219100
1368.200900,-9548.656652,370.102971,0.000000
1368.201226,-9474.636058,222.061783,0.000000
1368.201551,-9548.656652,74.020594,0.000000
1368.201877,-9326.594869,0.000000,153.219100
1368.202202,-9326.594869,74.020594,76.609550
1368.202528,-9030.512492,-148.041188,0.000000
1368.202853,-9474.636058,222.061783,0.000000
1368.203179,-9326.594869,0.000000,153.219100
1368.203504,-9474.636058,222.061783,0.000000
1368.203830,-9326.594869,0.000000,842.705048
1368.204155,-9400.615463,0.000000,229.828649
1368.204481,-9400.615463,222.061783,76.609550
1368.204806,-9474.636058,74.020594,229.828649
1368.205132,-9548.656652,148.041188,76.609550
1368.205458,-9474.636058,74.020594,229.828649
1368.205783,-9548.656652,74.020594,0.000000
1368.206109,-9622.677246,0.000000,0.000000
1368.206434,-9178.553681,0.000000,76.609550
1368.206760,-9252.574275,148.041188,459.657299
1368.207085,-9474.636058,0.000000,0.000000
1368.207411,-9326.594869,74.020594,306.438199
1368.207736,-9400.615463,74.020594,153.219100
1368.208062,-9326.594869,74.020594,153.219100
1368.208387,-9474.636058,222.061783,0.000000
1368.208713,-9400.615463,0.000000,0.000000
1368.209038,-9252.574275,0.000000,306.438199
1368.209364,-9400.615463,222.061783,76.609550
1368.209689,-9030.512492,-148.041188,229.828649
1368.210015,-9622.677246,74.020594,0.000000
1368.210340,-9400.615463,0.000000,0.000000
1368.210666,-9474.636058,0.000000,229.828649
1368.210991,-9178.553681,0.000000,0.000000
1368.211317,-9622.677246,0.000000,383.047749
1368.211642,-9178.553681,148.041188,229.828649
1368.211968,-9474.636058,148.041188,306.438199
1368.212293,-9400.615463,444.123565,76.609550
1368.212619,-9474.636058,148.041188,229.828649
1368.212944,-9400.615463,0.000000,0.000000
1368.213270,-9400.615463,148.041188,0.000000
1368.213595,-9474.636058,148.041188,306.438199
1368.213921,-9622.677246,370.102971,0.000000
1368.214246,-9474.636058,74.020594,153.219100
1368.214572,-9474.636058,222.061783,76.609550
1368.214897,-9252.574275,74.020594,153.219100
1368.215223,-9474.636058,0.000000,229.828649
1368.215548,-9400.615463,74.020594,153.219100
1368.215874,-9252.574275,222.061783,229.828649
1368.216200,-9400.615463,148.041188,76.609550
1368.216525,-9400.615463,222.061783,229.828649
1368.216851,-9326.594869,222.061783,153.219100
1368.217176,-9548.656652,296.082377,-153.219100
1368.217502,-9474.636058,296.082377,0.000000
1368.217827,-9400.615463,0.000000,153.219100
1368.218153,-9252.574275,0.000000,0.000000
1368.218478,-9474.636058,0.000000,0.000000
1368.218804,-9474.636058,148.041188,306.438199
1368.219129,-9474.636058,148.041188,306.438199
1368.219455,-9474.636058,370.102971,383.047749
1368.219781,-9474.636058,74.020594,229.828649
1368.220106,-9252.574275,296.082377,0.000000
1368.220432,-9252.574275,148.041188,0.000000
1368.220757,-9326.594869,296.082377,0.000000
1368.221083,-9400.615463,370.102971,-76.609550
1368.221408,-9474.636058,222.061783,76.609550
1368.221734,-9548.656652,74.020594,0.000000
1368.222059,-9474.636058,74.020594,153.219100
1368.222385,-9252.574275,0.000000,459.657299
1368.222710,-9326.594869,148.041188,306.438199
1368.223036,-9326.594869,74.020594,0.000000
1368.223362,-9400.615463,0.000000,229.828649
1368.223687,-9548.656652,0.000000,0.000000
1368.224013,-9400.615463,370.102971,-459.657299
1368.224338,-9474.636058,0.000000,0.000000
1368.224664,-9400.615463,74.020594,0.000000
1368.224989,-9252.574275,-370.102971,689.485948
1368.225315,-9400.615463,74.020594,153.219100
1368.225640,-9326.594869,0.000000,306.438199
1368.225966,-9548.656652,74.020594,229.828649
1368.226292,-9474.636058,148.041188,0.000000
1368.226617,-9474.636058,518.144159,0.000000
1368.226943,-9326.594869,0.000000,0.000000
1368.227268,-9400.615463,74.020594,0.000000
1368.227594,-9474.636058,222.061783,229.828649
1368.227919,-9474.636058,222.061783,612.876398
1368.228245,-9178.553681,222.061783,76.609550
1368.228570,-9548.656652,74.020594,153.219100
1368.228896,-9252.574275,74.020594,153.219100
1368.229221,-9622.677246,74.020594,229.828649
1368.229547,-9474.636058,222.061783,76.609550
1368.229873,-9178.553681,0.000000,229.828649
1368.230198,-9474.636058,148.041188,0.000000
1368.230524,-9474.636058,74.020594,0.000000
1368.230849,-9326.594869,74.020594,153.219100
1368.231175,-9400.615463,370.102971,0.000000
1368.231500,-9474.636058,0.000000,306.438199
1368.231826,-9326.594869,74.020594,383.047749
1368.232151,-9400.615463,222.061783,153.219100
1368.232477,-9178.553681,74.020594,153.219100
1368.232802,-9474.636058,222.061783,0.000000
1368.233128,-9770.718434,222.061783,0.000000
1368.233454,-9474.636058,0.000000,229.828649
1368.233779,-9474.636058,296.082377,-459.657299
1368.234105,-9400.615463,148.041188,153.219100
1368.234430,-9326.594869,74.020594,0.000000
1368.234756,-9474.636058,296.082377,0.000000
1368.235081,-9104.533087,296.082377,0.000000
1368.235407,-9548.656652,296.082377,76.609550
1368.235732,-9474.636058,222.061783,306.438199
1368.236058,-9474.636058,74.020594,0.000000
1368.236383,-9326.594869,0.000000,76.609550
1368.236709,-9178.553681,148.041188,-153.219100
1368.237035,-9474.636058,222.061783,-76.609550
1368.237360,-9252.574275,370.102971,0.000000
1368.237686,-9400.615463,148.041188,0.000000
1368.238011,-9252.574275,296.082377,0.000000
1368.238337,-9474.636058,222.061783,153.219100
1368.238662,-9474.636058,0.000000,383.047749
1368.238988,-9326.594869,296.082377,0.000000
1368.239313,-9696.697840,222.061783,-459.657299
1368.239639,-9474.636058,0.000000,383.047749
1368.239965,-9474.636058,296.082377,0.000000
1368.240290,-9400.615463,222.061783,-229.828649
1368.240616,-9474.636058,0.000000,0.000000
1368.240941,-9030.512492,148.041188,0.000000
1368.241267,-9474.636058,370.102971,0.000000
1368.241592,-9400.615463,148.041188,153.219100
1368.241918,-9474.636058,0.000000,0.000000
1368.242243,-9400.615463,222.061783,-153.219100
1368.242569,-9400.615463,222.061783,383.047749
1368.242894,-9474.636058,0.000000,0.000000
1368.243220,-9474.636058,0.000000,0.000000
1368.243546,-9474.636058,222.061783,-153.219100
1368.243871,-9474.636058,222.061783,0.000000
1368.244197,-9548.656652,222.061783,0.000000
1368.244522,-9104.533087,-148.041188,153.219100
1368.244848,-9326.594869,74.020594,0.000000
1368.245173,-9178.553681,444.123565,0.000000
1368.245499,-9474.636058,222.061783,0.000000
1368.245824,-9326.594869,148.041188,76.609550
1368.246150,-9474.636058,74.020594,153.219100
1368.246475,-9696.697840,370.102971,76.609550
1368.246801,-9400.615463,0.000000,0.000000
1368.247127,-9474.636058,296.082377,0.000000
1368.247452,-9326.594869,148.041188,306.438199
1368.247778,-9474.636058,222.061783,0.000000
1368.248103,-9474.636058,222.061783,306.438199
1368.248429,-9400.615463,518.144159,0.000000
1368.248754,-9400.615463,74.020594,153.219100
1368.249080,-9474.636058,74.020594,0.000000
1368.249405,-9178.553681,0.000000,76.609550
1368.249731,-9252.574275,74.020594,0.000000
1368.250056,-9474.636058,74.020594,229.828649
1368.250382,-9400.615463,296.082377,0.000000
1368.250708,-9178.553681,370.102971,306.438199
1368.251033,-9474.636058,0.000000,76.609550
1368.251359,-9400.615463,296.082377,0.000000
1368.251684,-9400.615463,74.020594,76.609550
1368.252010,-9400.615463,370.102971,-306.438199
1368.252335,-9548.656652,222.061783,76.609550
1368.252661,-9400.615463,0.000000,0.000000
1368.252986,-9400.615463,0.000000,153.219100
1368.253312,-9252.574275,0.000000,153.219100
1368.253638,-9030.512492,0.000000,-459.657299
1368.253963,-9474.636058,222.061783,0.000000
1368.254289,-9400.615463,296.082377,0.000000
1368.254614,-9326.594869,222.061783,76.609550
1368.254940,-9400.615463,444.123565,0.000000
1368.255265,-9400.615463,0.000000,-76.609550
1368.255591,-9548.656652,0.000000,0.000000
1368.255916,-9474.636058,74.020594,0.000000
1368.256242,-9474.636058,0.000000,153.219100
1368.256567,-9474.636058,222.061783,459.657299
1368.256893,-9474.636058,296.082377,76.609550
1368.257219,-9474.636058,296.082377,229.828649
1368.257544,-9474.636058,74.020594,-76.609550
1368.257870,-8882.471304,222.061783,229.828649
1368.258195,-9400.615463,148.041188,229.828649
1368.258521,-9178.553681,0.000000,153.219100
1368.258846,-9252.574275,296.082377,0.000000
1368.259172,-9474.636058,296.082377,153.219100
1368.259497,-9474.636058,222.061783,76.609550
1368.259823,-9622.677246,74.020594,0.000000
1368.260148,-9400.615463,222.061783,76.609550
1368.260474,-9326.594869,148.041188,0.000000
1368.260800,-9252.574275,370.102971,76.609550
1368.261125,-9474.636058,74.020594,229.828649
1368.261451,-9474.636058,-74.020594,0.000000
1368.261776,-9474.636058,148.041188,-229.828649
1368.262102,-9400.615463,74.020594,459.657299
1368.262427,-9326.594869,0.000000,153.219100
1368.262753,-9400.615463,0.000000,536.266849
1368.263078,-9400.615463,148.041188,153.219100
1368.263404,-9326.594869,148.041188,306.438199
1368.263729,-9400.615463,222.061783,0.000000
1368.264055,-9474.636058,148.041188,-153.219100
1368.264381,-9400.615463,222.061783,0.000000
1368.264706,-9252.574275,0.000000,0.000000
1368.265032,-9252.574275,370.102971,0.000000
1368.265357,-9326.594869,148.041188,383.047749
1368.265683,-9474.636058,370.102971,153.219100
1368.266008,-9474.636058,370.102971,0.000000
1368.266334,-9474.636058,592.164754,153.219100
1368.266659,-9622.677246,74.020594,153.219100
1368.266985,-9696.697840,222.061783,0.000000
1368.267311,-9326.594869,370.102971,383.047749
1368.267636,-9400.615463,222.061783,0.000000
1368.267962,-9474.636058,74.020594,76.609550
1368.268287,-9252.574275,148.041188,0.000000
1368.268613,-9400.615463,0.000000,0.000000
1368.268938,-9252.574275,222.061783,0.000000
1368.269264,-9326.594869,222.061783,-229.828649
1368.269589,-9400.615463,222.061783,153.219100
1368.269915,-9252.574275,222.061783,0.000000
1368.270240,-9400.615463,74.020594,0.000000
1368.270566,-9252.574275,370.102971,76.609550
1368.270892,-9770.718434,74.020594,-153.219100
1368.271217,-9474.636058,222.061783,0.000000
1368.271543,-9474.636058,0.000000,229.828649
1368.271868,-9400.615463,74.020594,612.876398
1368.272194,-9474.636058,0.000000,0.000000
1368.272519,-9326.594869,148.041188,153.219100
1368.272845,-9474.636058,222.061783,-306.438199
1368.273170,-9252.574275,0.000000,306.438199
1368.273496,-9178.553681,518.144159,76.609550
1368.273821,-9326.594869,0.000000,0.000000
1368.274147,-9474.636058,222.061783,0.000000
1368.274473,-9252.574275,0.000000,0.000000
1368.274798,-9400.615463,296.082377,229.828649
1368.275124,-9622.677246,222.061783,153.219100
1368.275449,-9622.677246,74.020594,76.609550
1368.275775,-9400.615463,0.000000,0.000000
1368.276100,-9178.553681,0.000000,-306.438199
1368.276426,-9548.656652,0.000000,229.828649
1368.276751,-9474.636058,148.041188,153.219100
1368.277077,-9474.636058,222.061783,0.000000
1368.277403,-9104.533087,148.041188,0.000000
1368.277728,-9474.636058,222.061783,459.657299
1368.278054,-9326.594869,74.020594,229.828649
1368.278379,-9696.697840,148.041188,229.828649
1368.278705,-9474.636058,74.020594,76.609550
1368.279030,-9400.615463,74.020594,229.828649
1368.279356,-9326.594869,148.041188,76.609550
1368.279681,-9326.594869,0.000000,76.609550
1368.280007,-9400.615463,148.041188,153.219100
1368.280332,-9178.553681,0.000000,153.219100
1368.280658,-9770.718434,222.061783,459.657299
1368.280984,-9548.656652,0.000000,229.828649
1368.281309,-9548.656652,444.123565,0.000000
1368.281635,-9400.615463,0.000000,153.219100
1368.281960,-9474.636058,222.061783,0.000000
1368.282286,-9622.677246,222.061783,-383.047749
1368.282611,-9178.553681,0.000000,0.000000
1368.282937,-9622.677246,296.082377,0.000000
1368.283262,-9252.574275,444.123565,0.000000
1368.283588,-9400.615463,0.000000,76.609550
1368.283913,-9474.636058,0.000000,0.000000
1368.284239,-9400.615463,296.082377,0.000000
1368.284565,-9474.636058,0.000000,306.438199
1368.284890,-8956.491898,148.041188,0.000000
1368.285216,-9178.553681,0.000000,229.828649
1368.285541,-9326.594869,0.000000,306.438199
1368.285867,-9474.636058,0.000000,0.000000
1368.286192,-9474.636058,296.082377,383.047749
1368.286518,-9178.553681,0.000000,0.000000
1368.286843,-9400.615463,296.082377,0.000000
1368.287169,-9474.636058,0.000000,536.266849
1368.287494,-9474.636058,444.123565,76.609550
1368.287820,-9622.677246,148.041188,0.000000
1368.288146,-9400.615463,74.020594,0.000000
1368.288471,-9474.636058,0.000000,459.657299
1368.288797,-9474.636058,0.000000,76.609550
1368.289122,-9104.533087,74.020594,459.657299
1368.289448,-9030.512492,0.000000,0.000000
1368.289773,-9474.636058,74.020594,-153.219100
1368.290099,-9474.636058,296.082377,153.219100
1368.290424,-9474.636058,222.061783,229.828649
1368.290750,-9252.574275,74.020594,0.000000
1368.291076,-9474.636058,0.000000,153.219100
1368.291401,-9474.636058,222.061783,153.219100
1368.291727,-9400.615463,0.000000,0.000000
1368.292052,-9622.677246,0.000000,0.000000
1368.292378,-9400.615463,296.082377,0.000000
1368.292703,-9400.615463,222.061783,0.000000
1368.293029,-9474.636058,296.082377,76.609550
1368.293354,-9474.636058,222.061783,766.095498
1368.293680,-9474.636058,296.082377,229.828649
1368.294005,-9622.677246,0.000000,536.266849
1368.294331,-9474.636058,222.061783,153.219100
1368.294657,-9474.636058,296.082377,153.219100
1368.294982,-9326.594869,296.082377,153.219100
1368.295308,-9474.636058,222.061783,0.000000
1368.295633,-9474.636058,222.061783,-229.828649
1368.295959,-9474.636058,296.082377,76.609550
1368.296284,-9474.636058,222.061783,0.000000
1368.296610,-9474.636058,148.041188,383.047749
1368.296935,-9548.656652,296.082377,0.000000
1368.297261,-9474.636058,148.041188,229.828649
1368.297586,-9400.615463,0.000000,919.314598
1368.297912,-9474.636058,0.000000,306.438199
1368.298238,-9474.636058,370.102971,383.047749
1368.298563,-9474.636058,148.041188,0.000000
1368.298889,-9178.553681,0.000000,153.219100
1368.299214,-9252.574275,296.082377,153.219100
1368.299540,-9474.636058,74.020594,0.000000
1368.299865,-9400.615463,222.061783,153.219100
1368.300191,-9400.615463,148.041188,0.000000
1368.300516,-9326.594869,0.000000,0.000000
1368.300842,-9622.677246,222.061783,229.828649
1368.301167,-9474.636058,0.000000,459.657299
1368.301493,-9548.656652,0.000000,153.219100
1368.301819,-9326.594869,222.061783,459.657299
1368.302144,-9252.574275,0.000000,76.609550
1368.302470,-9474.636058,0.000000,0.000000
1368.302795,-9400.615463,74.020594,0.000000
1368.303121,-9474.636058,370.102971,0.000000
1368.303446,-9178.553681,296.082377,-306.438199
1368.303772,-9252.574275,148.041188,153.219100
1368.304097,-9252.574275,74.020594,153.219100
1368.304423,-9474.636058,0.000000,306.438199
1368.304749,-9252.574275,0.000000,229.828649
1368.305074,-9252.574275,148.041188,76.609550
1368.305400,-9474.636058,0.000000,306.438199
1368.305725,-9400.615463,296.082377,0.000000
1368.306051,-9400.615463,0.000000,0.000000
1368.306376,-9474.636058,0.000000,153.219100
1368.306702,-9400.615463,74.020594,76.609550
1368.307027,-9548.656652,444.123565,0.000000
1368.307353,-9622.677246,74.020594,0.000000
1368.307678,-9178.553681,0.000000,0.000000
1368.308004,-9252.574275,148.041188,76.609550
1368.308330,-9474.636058,0.000000,229.828649
1368.308655,-9252.574275,148.041188,229.828649
1368.308981,-9548.656652,222.061783,-383.047749
1368.309306,-9474.636058,74.020594,383.047749
1368.309632,-9474.636058,296.082377,0.000000
1368.309957,-9474.636058,222.061783,153.219100
1368.310283,-9400.615463,74.020594,306.438199
1368.310608,-9252.574275,296.082377,306.438199
1368.310934,-9400.615463,148.041188,0.000000
1368.311259,-9252.574275,222.061783,0.000000
1368.311585,-9474.636058,444.123565,0.000000
1368.311911,-9030.512492,222.061783,-383.047749
1368.312236,-9326.594869,222.061783,0.000000
1368.312562,-9252.574275,-74.020594,76.609550
1368.312887,-9400.615463,222.061783,76.609550
1368.313213,-8956.491898,0.000000,-536.266849
1368.313538,-9252.574275,148.041188,0.000000
1368.313864,-9474.636058,370.102971,153.219100
1368.314189,-9474.636058,222.061783,0.000000
1368.314515,-9326.594869,0.000000,76.609550
1368.314840,-9400.615463,222.061783,153.219100
1368.315166,-9474.636058,0.000000,612.876398
1368.315492,-9474.636058,74.020594,153.219100
1368.315817,-9400.615463,148.041188,0.000000
1368.316143,-9252.574275,370.102971,-306.438199
1368.316468,-9326.594869,74.020594,0.000000
1368.316794,-9548.656652,0.000000,0.000000
1368.317119,-9548.656652,0.000000,229.828649
1368.317445,-9326.594869,592.164754,76.609550
1368.317770,-9326.594869,0.000000,612.876398
1368.318096,-9400.615463,0.000000,536.266849
1368.318422,-9326.594869,74.020594,0.000000
1368.318747,-9400.615463,0.000000,0.000000
1368.319073,-9326.594869,0.000000,229.828649
1368.319398,-9400.615463,74.020594,0.000000
1368.319724,-9400.615463,74.020594,229.828649
1368.320049,-9474.636058,74.020594,0.000000
1368.320375,-9400.615463,296.082377,76.609550
1368.320700,-9400.615463,0.000000,306.438199
1368.321026,-9400.615463,148.041188,0.000000
1368.321352,-9326.594869,0.000000,383.047749
1368.321677,-9400.615463,0.000000,0.000000
1368.322003,-9400.615463,74.020594,0.000000
1368.322328,-9622.677246,74.020594,0.000000
1368.322654,-9178.553681,148.041188,0.000000
1368.322979,-9474.636058,222.061783,0.000000
1368.323305,-9326.594869,222.061783,153.219100
1368.323630,-9400.615463,74.020594,229.828649
1368.323956,-9252.574275,0.000000,0.000000
1368.324282,-9400.615463,148.041188,153.219100
1368.324607,-9178.553681,222.061783,153.219100
1368.324933,-9178.553681,74.020594,76.609550
1368.325258,-9548.656652,222.061783,76.609550
1368.325584,-9474.636058,148.041188,0.000000
1368.325909,-9474.636058,0.000000,306.438199
1368.326235,-9474.636058,222.061783,0.000000
1368.326560,-9104.533087,0.000000,0.000000
1368.326886,-9400.615463,296.082377,0.000000
1368.327212,-9326.594869,148.041188,76.609550
1368.327537,-9474.636058,222.061783,229.828649
1368.327863,-9400.615463,0.000000,76.609550
1368.328188,-9474.636058,370.102971,0.000000
1368.328514,-9474.636058,222.061783,229.828649
1368.328839,-9030.512492,74.020594,0.000000
1368.329165,-9474.636058,0.000000,306.438199
1368.329490,-9326.594869,222.061783,0.000000
1368.329816,-9474.636058,0.000000,0.000000
1368.330141,-9326.594869,148.041188,-229.828649
1368.330467,-9548.656652,148.041188,306.438199
1368.330793,-9474.636058,222.061783,-76.609550
1368.331118,-9548.656652,0.000000,229.828649
1368.331444,-9400.615463,74.020594,306.438199
1368.331769,-9326.594869,0.000000,766.095498
1368.332095,-9400.615463,0.000000,0.000000
1368.332420,-9770.718434,0.000000,76.609550
1368.332746,-9474.636058,74.020594,0.000000
1368.333071,-9326.594869,148.041188,306.438199
1368.333397,-9326.594869,148.041188,-153.219100
1368.333723,-9548.656652,0.000000,76.609550
1368.334048,-9474.636058,148.041188,153.219100
1368.334374,-9474.636058,148.041188,229.828649
1368.334699,-9474.636058,0.000000,0.000000
1368.335025,-9474.636058,0.000000,306.438199
1368.335350,-9474.636058,74.020594,0.000000
1368.335676,-9252.574275,74.020594,0.000000
1368.336001,-9474.636058,74.020594,1072.533697
1368.336327,-9400.615463,0.000000,306.438199
1368.336653,-9400.615463,74.020594,0.000000
1368.336978,-9474.636058,74.020594,229.828649
1368.337304,-9474.636058,74.020594,383.047749
1368.337629,-9474.636058,148.041188,153.219100
1368.337955,-9326.594869,0.000000,306.438199
1368.338280,-9474.636058,148.041188,229.828649
1368.338606,-9474.636058,74.020594,229.828649
1368.338931,-9326.594869,148.041188,-306.438199
1368.339257,-9326.594869,222.061783,-76.609550
1368.339583,-9474.636058,222.061783,0.000000
1368.339908,-9696.697840,296.082377,0.000000
1368.340234,-9400.615463,-370.102971,766.095498
1368.340559,-9474.636058,222.061783,0.000000
1368.340885,-9474.636058,148.041188,306.438199
1368.341210,-9474.636058,74.020594,76.609550
1368.341536,-9474.636058,370.102971,-76.609550
1368.341861,-9548.656652,296.082377,0.000000
1368.342187,-9400.615463,222.061783,153.219100
1368.342513,-9474.636058,0.000000,0.000000
1368.342838,-9326.594869,74.020594,153.219100
1368.343164,-9178.553681,222.061783,0.000000
1368.343489,-9548.656652,222.061783,0.000000
1368.343815,-9400.615463,222.061783,0.000000
1368.344140,-9400.615463,74.020594,0.000000
1368.344466,-9696.697840,222.061783,306.438199
1368.344791,-9474.636058,444.123565,76.609550
1368.345117,-9326.594869,370.102971,153.219100
1368.345443,-9474.636058,296.082377,153.219100
1368.345768,-9474.636058,74.020594,0.000000
1368.346094,-9474.636058,74.020594,76.609550
1368.346419,-9326.594869,148.041188,-229.828649
1368.346745,-9474.636058,296.082377,0.000000
1368.347070,-9474.636058,74.020594,0.000000
1368.347396,-9326.594869,518.144159,306.438199
1368.347721,-9400.615463,0.000000,229.828649
1368.348047,-9252.574275,296.082377,0.000000
1368.348372,-9252.574275,74.020594,153.219100
1368.348698,-9252.574275,148.041188,-153.219100
1368.349024,-9252.574275,148.041188,0.000000
1368.349349,-9326.594869,0.000000,76.609550
1368.349675,-9474.636058,0.000000,76.609550
1368.350000,-9400.615463,148.041188,0.000000
1368.350326,-9400.615463,148.041188,0.000000
1368.350651,-9474.636058,0.000000,153.219100
1368.350977,-9474.636058,0.000000,0.000000
1368.351302,-9474.636058,74.020594,76.609550
1368.351628,-9178.553681,-148.041188,766.095498
1368.351954,-9252.574275,222.061783,0.000000
1368.352279,-9252.574275,74.020594,229.828649
1368.352605,-9474.636058,148.041188,0.000000
1368.352930,-9474.636058,222.061783,-153.219100
1368.353256,-9474.636058,296.082377,-306.438199
1368.353581,-9326.594869,0.000000,383.047749
1368.353907,-9844.739029,0.000000,459.657299
1368.354232,-9474.636058,148.041188,76.609550
1368.354558,-9252.574275,0.000000,76.609550
1368.354884,-9474.636058,222.061783,306.438199
1368.355209,-9400.615463,148.041188,0.000000
1368.355535,-9252.574275,74.020594,0.000000
1368.355860,-9326.594869,592.164754,-229.828649
1368.356186,-9326.594869,222.061783,0.000000
1368.356511,-9474.636058,0.000000,383.047749
1368.356837,-9474.636058,148.041188,0.000000
1368.357162,-9252.574275,0.000000,0.000000
1368.357488,-9326.594869,444.123565,0.000000
1368.357814,-9474.636058,0.000000,153.219100
1368.358139,-9548.656652,0.000000,306.438199
1368.358465,-9326.594869,222.061783,76.609550
1368.358790,-9252.574275,222.061783,76.609550
1368.359116,-9474.636058,0.000000,0.000000
1368.359441,-9474.636058,148.041188,76.609550
1368.359767,-9252.574275,222.061783,0.000000
1368.360092,-9030.512492,74.020594,306.438199
1368.360418,-9474.636058,0.000000,536.266849
1368.360744,-9400.615463,222.061783,229.828649
1368.361069,-9252.574275,0.000000,306.438199
1368.361395,-9400.615463,222.061783,0.000000
1368.361720,-9474.636058,296.082377,76.609550
1368.362046,-9474.636058,0.000000,153.219100
1368.362371,-9548.656652,222.061783,76.609550
1368.362697,-9548.656652,148.041188,76.609550
1368.363022,-9400.615463,222.061783,153.219100
1368.363348,-9252.574275,0.000000,536.266849
1368.363674,-9548.656652,148.041188,76.609550
1368.363999,-9474.636058,148.041188,306.438199
1368.364325,-9400.615463,296.082377,-536.266849
1368.364650,-9474.636058,148.041188,0.000000
1368.364976,-9696.697840,370.102971,0.000000
1368.365301,-9474.636058,0.000000,-153.219100
1368.365627,-9474.636058,0.000000,306.438199
1368.365952,-9252.574275,0.000000,0.000000
1368.366278,-9326.594869,0.000000,459.657299
1368.366604,-9326.594869,0.000000,306.438199
1368.366929,-9326.594869,222.061783,229.828649
1368.367255,-9104.533087,296.082377,-306.438199
1368.367580,-9622.677246,222.061783,-306.438199
1368.367906,-9474.636058,0.000000,76.609550
1368.368231,-9400.615463,148.041188,0.000000
1368.368557,-9474.636058,148.041188,229.828649
1368.368882,-9474.636058,0.000000,383.047749
1368.369208,-9400.615463,0.000000,0.000000
1368.369533,-9400.615463,74.020594,229.828649
1368.369859,-9474.636058,222.061783,306.438199
1368.370185,-9178.553681,222.061783,-459.657299
1368.370510,-9326.594869,0.000000,0.000000
1368.370836,-9400.615463,0.000000,229.828649
1368.371161,-9326.594869,370.102971,0.000000
1368.371487,-9622.677246,666.185348,-536.266849
1368.371812,-9474.636058,0.000000,229.828649
1368.372138,-9474.636058,296.082377,0.000000
1368.372463,-9548.656652,518.144159,0.000000
1368.372789,-9474.636058,74.020594,153.219100
1368.373115,-9474.636058,222.061783,229.828649
1368.373440,-9326.594869,148.041188,0.000000
1368.373766,-9400.615463,222.061783,0.000000
1368.374091,-9474.636058,74.020594,0.000000
1368.374417,-9104.533087,0.000000,-306.438199
1368.374742,-9474.636058,370.102971,0.000000
1368.375068,-9474.636058,74.020594,229.828649
1368.375393,-9474.636058,0.000000,229.828649
1368.375719,-9326.594869,518.144159,-229.828649
1368.376045,-9474.636058,74.020594,612.876398
1368.376370,-9400.615463,222.061783,0.000000
1368.376696,-9400.615463,296.082377,0.000000
1368.377021,-9326.594869,74.020594,0.000000
1368.377347,-9548.656652,148.041188,0.000000
1368.377672,-9104.533087,0.000000,0.000000
1368.377998,-9474.636058,0.000000,76.609550
1368.378323,-9474.636058,148.041188,0.000000
1368.378649,-9178.553681,74.020594,-306.438199
1368.378975,-9622.677246,74.020594,76.609550
1368.379300,-9474.636058,74.020594,229.828649
1368.379626,-9326.594869,0.000000,229.828649
1368.379951,-9474.636058,148.041188,0.000000
1368.380277,-9548.656652,222.061783,229.828649
1368.380602,-9474.636058,74.020594,0.000000
1368.380928,-9548.656652,444.123565,-153.219100
1368.381253,-9474.636058,222.061783,229.828649
1368.381579,-9474.636058,0.000000,612.876398
1368.381905,-9252.574275,74.020594,0.000000
1368.382230,-9474.636058,0.000000,0.000000
1368.382556,-9548.656652,222.061783,0.000000
1368.382881,-9326.594869,0.000000,-995.924147
1368.383207,-9992.780217,74.020594,-995.924147
1368.383532,-9326.594869,0.000000,-1455.581446
1368.383858,-8808.450710,370.102971,-1915.238745
1368.384183,-9030.512492,74.020594,-1762.019645
1368.384509,-9548.656652,74.020594,-1608.800546
1368.384835,-9548.656652,592.164754,-1762.019645
1368.385160,-9104.533087,518.144159,-2068.457845
1368.385486,-10066.800811,148.041188,-1302.362347
1368.385811,-9622.677246,148.041188,-1762.019645
1368.386137,-9548.656652,148.041188,-1762.019645
1368.386462,-9548.656652,296.082377,-2221.676944
1368.386788,-9474.636058,0.000000,-2528.115143
1368.387113,-9178.553681,0.000000,-1455.581446
1368.387439,-9844.739029,74.020594,-2604.724693
1368.387764,-8956.491898,222.061783,-2221.676944
1368.388090,-8734.430116,222.061783,-1991.848295
1368.388416,-9474.636058,0.000000,-1838.629195
1368.388741,-9474.636058,0.000000,-1608.800546
1368.389067,-9474.636058,0.000000,-1302.362347
1368.389392,-9252.574275,0.000000,-1455.581446
1368.389718,-9622.677246,-222.061783,-306.438199
1368.390043,-9844.739029,0.000000,-306.438199
1368.390369,-9474.636058,0.000000,-536.266849
1368.390694,-9326.594869,74.020594,-1608.800546
1368.391020,-9474.636058,0.000000,-1225.752797
1368.391346,-9474.636058,0.000000,-1608.800546
1368.391671,-8956.491898,222.061783,-2221.676944
1368.391997,-9474.636058,0.000000,-2298.286494
1368.392322,-9696.697840,-148.041188,-2604.724693
1368.392648,-9696.697840,-370.102971,-2911.162892
1368.392973,-9474.636058,-296.082377,-4213.525239
1368.393299,-9400.615463,-370.102971,-4673.182538
1368.393624,-9178.553681,-592.164754,-4673.182538
1368.393950,-8364.327145,-518.144159,-3677.258390
1368.394276,-8290.306550,0.000000,-2068.457845
1368.394601,-8734.430116,0.000000,0.000000
1368.394927,-9474.636058,444.123565,1302.362347
1368.395252,-9844.739029,518.144159,2068.457845
1368.395578,-10807.006753,1184.329507,2298.286494
1368.395903,-11029.068536,1110.308913,919.314598
1368.396229,-10510.924376,592.164754,0.000000
1368.396554,-9992.780217,74.020594,-229.828649
1368.396880,-9696.697840,0.000000,-459.657299
1368.397206,-8882.471304,-518.144159,-1378.971896
1368.397531,-8438.347739,-740.205942,-2681.334243
1368.397857,-8216.285956,-814.226536,-3600.648841
1368.398182,-7328.038826,-1036.288319,-3830.477490
1368.398508,-7476.080014,-370.102971,-2451.505594
1368.398833,-8142.265362,-518.144159,-76.609550
1368.399159,-9326.594869,296.082377,2834.553343
1368.399484,-10214.842000,814.226536,5209.449386
1368.399810,-11399.171507,1924.535449,4596.572988
1368.400136,-12139.377449,1850.514855,1915.238745
1368.400461,-12731.542202,1628.453072,-1685.410096
1368.400787,-11695.253884,518.144159,-4519.963438
1368.401112,-10214.842000,0.000000,-6281.983084
1368.401438,-8216.285956,-296.082377,-7201.297681
1368.401763,-6365.771101,-1258.350101,-7967.393179
1368.402089,-4515.256246,-2590.720797,-6511.811733
1368.402414,-4737.318029,-2738.761985,-4366.744339
1368.402740,-7179.997637,-1702.473667,0.000000
1368.403066,-10066.800811,-296.082377,4060.306139
1368.403391,-11843.295072,1036.288319,7967.393179
1368.403717,-12731.542202,3108.864956,8197.221829
1368.404042,-13989.892304,4293.194464,3983.696590
1368.404368,-14285.974681,3552.988522,-4443.353888
1368.404693,-12139.377449,1702.473667,-12027.699319
1368.405019,-8068.244768,0.000000,-14632.424012
1368.405344,-3478.967927,-1480.411884,-11721.261119
1368.405670,-2368.659014,-2886.803174,-4979.620737
1368.405995,-5107.421000,-3256.906145,2298.286494
1368.406321,-9104.533087,-3034.844362,7890.783629
1368.406647,-11251.130318,-1184.329507,8810.098227
1368.406972,-12657.521608,1258.350101,5745.716235
1368.407298,-14359.995275,1998.556043,1302.362347
1368.407623,-12879.583391,888.247130,-2757.943793
1368.407949,-8438.347739,666.185348,-4213.525239
1368.408274,-6513.812290,1406.391290,-3524.039291
1368.408600,-6809.894666,2960.823768,-3524.039291
1368.408925,-8956.491898,1110.308913,-4366.744339
1368.409251,-10214.842000,-370.102971,-7967.393179
1368.409577,-8808.450710,-2072.576638,-6894.859482
1368.409902,-8216.285956,-3256.906145,-2987.772442
1368.410228,-8438.347739,-2960.823768,4979.620737
1368.410553,-9548.656652,-1924.535449,12257.527968
1368.410879,-10807.006753,-1406.391290,14172.766713
1368.411204,-10214.842000,74.020594,9039.926876
1368.411530,-12361.439231,2294.638420,0.000000
1368.411855,-15026.180623,4293.194464,-10418.898773
1368.412181,-12435.459826,3775.050304,-17620.196454
1368.412507,-6439.791695,2072.576638,-18539.511052
1368.412832,-3478.967927,-888.247130,-12027.699319
1368.413158,-4959.379811,-2590.720797,-3447.429741
1368.413483,-6217.729913,-3552.988522,3524.039291
1368.413809,-6365.771101,-2368.659014,5362.668486
1368.414134,-7920.203579,-1850.514855,7048.078582
1368.414460,-12879.583391,-1184.329507,6435.202183
1368.414785,-17394.839637,-666.185348,5286.058936
1368.415111,-14878.139434,740.205942,5745.716235
1368.415437,-9548.656652,3182.885551,7584.345430
1368.415762,-8734.430116,5625.565159,2451.505594
1368.416088,-9400.615463,6143.709319,-9576.193725
1368.416413,-8882.471304,2886.803174,-22829.645840
1368.416739,-6513.812290,-1406.391290,-26277.075581
1368.417064,-5403.503377,-4219.173869,-15015.471761
1368.417390,-6069.688724,-4219.173869,459.657299
1368.417715,-5329.482782,-3182.885551,13406.671215
1368.418041,-6809.894666,-2442.679609,23289.303139
1368.418367,-11991.336260,-1036.288319,22829.645840
1368.418692,-18209.066173,1628.453072,7890.783629
1368.419018,-18579.169144,3256.906145,-7354.516781
1368.419343,-13175.665768,3775.050304,-11797.870669
1368.419669,-7920.203579,5107.421000,-8273.831378
1368.419994,-4515.256246,5403.503377,-9422.974625
1368.420320,-2960.823768,2294.638420,-15398.519510
1368.420645,-7031.956449,-3256.906145,-15321.909960
1368.420971,-9400.615463,-5033.400406,-9729.412825
1368.421297,-5329.482782,-5477.523971,-3294.210641
1368.421622,-4219.173869,-4219.173869,6511.811733
1368.421948,-8734.430116,-3182.885551,19841.873398
1368.422273,-17320.819043,-592.164754,28805.190725
1368.422599,-15840.407159,370.102971,17620.196454
1368.422924,-11547.212695,3849.070898,-2757.943793
1368.423250,-12139.377449,4811.338623,-14479.204912
1368.423575,-12361.439231,4811.338623,-19995.092498
1368.423901,-5551.544565,2812.782580,-21680.502593
1368.424227,-3404.947333,-592.164754,-18539.511052
1368.424552,-4811.338623,-2442.679609,-3524.039291
1368.424878,-4663.297435,-3849.070898,8886.707777
1368.425203,-9030.512492,-4293.194464,11721.261119
1368.425529,-14137.933492,-3330.926739,10418.898773
1368.425854,-15470.304188,-1924.535449,7967.393179
1368.426180,-12657.521608,-518.144159,7354.516781
1368.426506,-9918.759623,962.267725,6281.983084
1368.426831,-7105.977043,2072.576638,-689.485948
1368.427157,-8438.347739,3923.091493,-7967.393179
1368.427482,-9844.739029,5181.441594,-15168.690860
1368.427808,-7105.977043,3478.967927,-21297.454844
1368.428133,-6809.894666,962.267725,-19305.606550
1368.428459,-10436.903782,-1110.308913,-8427.050478
1368.428784,-8660.409521,-3997.112087,3907.087040
1368.429110,-2590.720797,-5773.606348,14555.814462
1368.429436,-7772.162391,-2368.659014,22063.550342
1368.429761,-18875.251521,370.102971,18845.949251
1368.430087,-17098.757260,-1406.391290,3753.867940
1368.430412,-6735.874072,-2146.597232,-7354.516781
1368.430738,-5477.523971,3552.988522,-8273.831378
1368.431063,-11843.295072,7105.977043,-6741.640382
1368.431389,-13693.809927,6069.688724,-13330.061665
1368.431714,-6069.688724,2442.679609,-17773.415554
1368.432040,-148.041188,-962.267725,-9959.241474
1368.432366,-5329.482782,-3478.967927,-1991.848295
1368.432691,-12953.603985,-3849.070898,-1455.581446
1368.433017,-12731.542202,-3256.906145,4903.011187
1368.433342,-8882.471304,-2960.823768,18922.558801
1368.433668,-11917.315666,-962.267725,24055.398637
1368.433993,-15618.345376,888.247130,8273.831378
1368.434319,-12805.562797,1702.473667,-8656.879127
1368.434644,-8660.409521,3182.885551,-13559.890315
1368.434970,-6365.771101,5403.503377,-13483.280765
1368.435296,-6217.729913,4885.359217,-17696.806004
1368.435621,-5921.647536,370.102971,-16394.443657
1368.435947,-5107.421000,-2664.741391,-2374.896044
1368.436272,-6883.915261,-1554.432478,9806.022374
1368.436598,-9474.636058,-740.205942,7507.735880
1368.436923,-11251.130318,-1776.494261,153.219100
1368.437249,-14804.118840,-3552.988522,9576.193725
1368.437574,-16950.716072,-4219.173869,15092.081311
1368.437900,-6957.935855,-1554.432478,7660.954980
1368.438226,-1776.494261,2072.576638,-1608.800546
1368.438551,-9992.780217,4589.276840,1455.581446
1368.438877,-14211.954086,5551.544565,-1225.752797
1368.439202,-8364.327145,4441.235652,-18003.244203
1368.439528,-6143.709319,1036.288319,-22829.645840
1368.439853,-10584.944971,-1628.453072,-3830.477490
1368.440179,-11325.150913,-2368.659014,12793.794817
1368.440505,-4737.318029,-3701.029710,14709.033562
1368.440830,-1184.329507,-5033.400406,14862.252661
1368.441156,-12953.603985,-3330.926739,18156.463303
1368.441481,-19985.560434,-814.226536,11874.480219
1368.441807,-11621.233289,814.226536,-8197.221829
1368.442132,-5847.626942,2960.823768,-12640.575717
1368.442458,-10436.903782,2812.782580,-3217.601092
1368.442783,-10881.027347,3627.009116,-612.876398
1368.443109,-3849.070898,2442.679609,-9039.926876
1368.443435,-3997.112087,-444.123565,-9729.412825
1368.443760,-12139.377449,-370.102971,4979.620737
1368.444086,-14582.057057,-962.267725,7124.688131
1368.444411,-5699.585753,-2886.803174,-3217.601092
1368.444737,-5921.647536,-2442.679609,6665.030833
1368.445062,-16358.551318,-1258.350101,20454.749797
1368.445388,-13915.871710,296.082377,10648.727422
1368.445713,-4515.256246,1036.288319,-6358.592633
1368.446039,-7402.059420,2664.741391,-10725.336972
1368.446365,-14137.933492,5255.462188,-5209.449386
1368.446690,-10658.965565,4811.338623,-10572.117872
1368.447016,-3849.070898,1036.288319,-18999.168350
1368.447341,-5107.421000,-1036.288319,-3447.429741
1368.447667,-13397.727550,-1184.329507,14555.814462
1368.447992,-10807.006753,-1776.494261,9346.365076
1368.448318,-2516.700203,-2368.659014,383.047749
1368.448643,-11695.253884,-1776.494261,6741.640382
1368.448969,-19171.333898,444.123565,11031.775171
1368.449295,-11325.150913,296.082377,-2987.772442
1368.449620,-2368.659014,-296.082377,-13406.671215
1368.449946,-7254.018232,2368.659014,-3983.696590
1368.450271,-12657.521608,4663.297435,1762.019645
1368.450597,-5403.503377,2072.576638,-11721.261119
1368.450922,-2368.659014,-2368.659014,-14172.766713
1368.451248,-11843.295072,-2072.576638,2374.896044
1368.451573,-16802.674883,296.082377,13100.233016
1368.451899,-6809.894666,-1480.411884,3677.258390
1368.452225,-4219.173869,-3108.864956,2374.896044
1368.452550,-15618.345376,-1776.494261,15858.176809
1368.452876,-14434.015869,-1110.308913,8350.440928
1368.453201,-3034.844362,-888.247130,-9959.241474
1368.453527,-5181.441594,148.041188,-10725.336972
1368.453852,-15470.304188,4071.132681,2451.505594
1368.454178,-12065.356855,4293.194464,1915.238745
1368.454504,-2516.700203,-666.185348,-12487.356617
1368.454829,-6587.832884,-2072.576638,-6588.421283
1368.455155,-17468.860231,-370.102971,13636.499864
1368.455480,-13175.665768,-888.247130,7201.297681
1368.455806,-1850.514855,-2590.720797,-1378.971896
1368.456131,-7920.203579,-1480.411884,7814.174080
1368.456457,-18061.024985,1036.288319,14172.766713
1368.456782,-9474.636058,592.164754,-459.657299
1368.457108,-1850.514855,-370.102971,-15168.690860
1368.457434,-10732.986159,1480.411884,-7660.954980
1368.457759,-14211.954086,4145.153275,4060.306139
1368.458085,-4959.379811,1628.453072,-8044.002729
1368.458410,-1110.308913,-666.185348,-10112.460574
1368.458736,-12805.562797,444.123565,6205.373534
1368.459061,-18653.189738,1184.329507,13176.842566
1368.459387,-7254.018232,-1184.329507,-1762.019645
1368.459712,-2072.576638,-2590.720797,-3294.210641
1368.460038,-13619.789333,-592.164754,10648.727422
1368.460364,-14582.057057,592.164754,10955.165621
1368.460689,-3404.947333,888.247130,-6971.469032
1368.461015,-4959.379811,1628.453072,-9346.365076
1368.461340,-16728.654289,4737.318029,1762.019645
1368.461666,-14211.954086,3775.050304,-2298.286494
1368.461991,-2220.617826,-444.123565,-16777.491406
1368.462317,-3997.112087,-1998.556043,-8427.050478
1368.462642,-14211.954086,0.000000,12410.747068
1368.462968,-11843.295072,-666.185348,9806.022374
1368.463294,-1406.391290,-2220.617826,-2374.896044
1368.463619,-8956.491898,-814.226536,4903.011187
1368.463945,-20207.622217,1850.514855,11414.822920
1368.464270,-11103.089130,962.267725,-2834.553343
1368.464596,-2960.823768,-222.061783,-13789.718964
1368.464921,-11917.315666,370.102971,-3830.477490
1368.465247,-13693.809927,2516.700203,8350.440928
1368.465572,-5181.441594,148.041188,-1915.238745
1368.465898,-1554.432478,-1924.535449,-10035.851024
1368.466224,-11843.295072,-1406.391290,4136.915689
1368.466549,-18061.024985,148.041188,10878.556072
1368.466875,-6883.915261,-2368.659014,-3677.258390
1368.467200,-1776.494261,-3256.906145,-2068.457845
1368.467526,-14434.015869,-666.185348,11108.384721
1368.467851,-15396.283594,1406.391290,11568.042020
1368.468177,-2886.803174,1332.370696,-5362.668486
1368.468503,-5477.523971,1036.288319,-9959.241474
1368.468828,-16580.613101,2664.741391,2374.896044
1368.469154,-14137.933492,2664.741391,689.485948
1368.469479,-2664.741391,-518.144159,-11721.261119
1368.469805,-3552.988522,-1850.514855,-1532.190996
1368.470130,-15766.386565,296.082377,15781.567259
1368.470456,-13693.809927,-666.185348,9346.365076
1368.470781,-2368.659014,-2590.720797,-5209.449386
1368.471107,-8364.327145,-1110.308913,-1378.971896
1368.471433,-18135.045579,1554.432478,9576.193725
1368.471758,-10066.800811,1702.473667,-2987.772442
1368.472084,-1184.329507,-222.061783,-13636.499864
1368.472409,-8660.409521,1184.329507,-2911.162892
1368.472735,-15100.201217,2664.741391,5898.935335
1368.473060,-6883.915261,1406.391290,-5132.839837
1368.473386,-1702.473667,-740.205942,-12947.013916
1368.473711,-11917.315666,444.123565,2068.457845
1368.474037,-18061.024985,1628.453072,12793.794817
1368.474363,-8142.265362,-1184.329507,-2757.943793
1368.474688,-3034.844362,-2442.679609,-4443.353888
1368.475014,-14878.139434,-370.102971,10495.508323
1368.475339,-16506.592507,1332.370696,10725.336972
1368.475665,-3404.947333,518.144159,-6511.811733
1368.475990,-3701.029710,74.020594,-11261.603821
1368.476316,-14730.098246,1850.514855,2068.457845
1368.476641,-12953.603985,1924.535449,3217.601092
1368.476967,-2220.617826,-814.226536,-13713.109414
1368.477293,-1776.494261,-1184.329507,-6128.763984
1368.477618,-14508.036463,0.000000,11951.089769
1368.477944,-13693.809927,-222.061783,6818.249932
1368.478269,-1998.556043,-2294.638420,-4749.792088
1368.478595,-8734.430116,-740.205942,842.705048
1368.478920,-19763.498651,1110.308913,14632.424012
1368.479246,-11177.109724,740.205942,3907.087040
1368.479571,-1776.494261,-370.102971,-10878.556072
1368.479897,-8734.430116,296.082377,-2451.505594
1368.480223,-15174.221811,1924.535449,7354.516781
1368.480548,-7550.100608,222.061783,-3983.696590
1368.480874,-666.185348,-1110.308913,-12027.699319
1368.481199,-10288.862594,-296.082377,612.876398
1368.481525,-17690.922014,814.226536,13866.328514
1368.481850,-8734.430116,-1850.514855,-1302.362347
1368.482176,-3108.864956,-3701.029710,-4519.963438
1368.482502,-14211.954086,-1110.308913,11108.384721
1368.482827,-16210.510130,1184.329507,11568.042020
1368.483153,-2960.823768,1036.288319,-5439.278036
1368.483478,-3404.947333,592.164754,-10725.336972
1368.483804,-16062.468941,2886.803174,0.000000
1368.484129,-14952.160028,2960.823768,2298.286494
1368.484455,-4515.256246,-518.144159,-12640.575717
1368.484780,-4515.256246,-888.247130,-5362.668486
1368.485106,-15100.201217,370.102971,14862.252661
1368.485432,-14285.974681,-296.082377,10035.851024
1368.485757,-1998.556043,-2590.720797,-5439.278036
1368.486083,-5921.647536,-2220.617826,-1378.971896
1368.486408,-17987.004391,1184.329507,8580.269578
1368.486734,-11399.171507,1184.329507,76.609550
1368.487059,-444.123565,0.000000,-13559.890315
1368.487385,-7994.224174,1036.288319,-4519.963438
1368.487710,-15544.324782,3404.947333,7584.345430
1368.488036,-8956.491898,1554.432478,-3677.258390
1368.488362,-2368.659014,-1036.288319,-11644.651570
1368.488687,-10807.006753,0.000000,2451.505594
1368.489013,-17468.860231,2072.576638,14632.424012
1368.489338,-8364.327145,-740.205942,1608.800546
1368.489664,-2146.597232,-2368.659014,-3907.087040
1368.489989,-12879.583391,-740.205942,8197.221829
1368.490315,-16654.633695,1702.473667,9499.584175
1368.490640,-5033.400406,518.144159,-7584.345430
1368.490966,-2960.823768,1110.308913,-12180.918418
1368.491292,-12953.603985,2368.659014,-612.876398
1368.491617,-12287.418637,2960.823768,3064.381992
1368.491943,-3330.926739,-444.123565,-11721.261119
1368.492268,-4663.297435,-2442.679609,-6435.202183
1368.492594,-16284.530724,-740.205942,12563.966167
1368.492919,-15248.242405,-888.247130,12104.308868
1368.493245,-1776.494261,-2368.659014,-2298.286494
1368.493570,-5995.668130,-1554.432478,995.924147
1368.493896,-18875.251521,1554.432478,11491.432470
1368.494222,-13323.706956,888.247130,229.828649
1368.494547,-2590.720797,0.000000,-15168.690860
1368.494873,-7624.121203,0.000000,-7277.907231
1368.495198,-15100.201217,1924.535449,7277.907231
1368.495524,-8364.327145,296.082377,-306.438199
1368.495849,-1332.370696,-2294.638420,-9422.974625
1368.496175,-10362.883188,-1702.473667,2451.505594
1368.496501,-18579.169144,222.061783,14325.985813
1368.496826,-9474.636058,-1406.391290,-612.876398
1368.497152,-1036.288319,-2886.803174,-8273.831378
1368.497477,-11399.171507,-1184.329507,4979.620737
1368.497803,-16284.530724,814.226536,8656.879127
1368.498128,-5033.400406,740.205942,-6741.640382
1368.498454,-2664.741391,888.247130,-11338.213370
1368.498779,-15470.304188,2368.659014,1608.800546
1368.499105,-15174.221811,2220.617826,6511.811733
1368.499431,-3849.070898,-370.102971,-9806.022374
1368.499756,-3923.091493,-1258.350101,-6435.202183
1368.500082,-14952.160028,518.144159,11874.480219
1368.500407,-14063.912898,222.061783,10265.679673
1368.500733,-2664.741391,-1406.391290,-4366.744339
1368.501058,-4663.297435,-1554.432478,-2374.896044
1368.501384,-16876.695478,2146.597232,7967.393179
1368.501709,-12805.562797,2368.659014,2451.505594
1368.502035,-1258.350101,1110.308913,-12563.966167
1368.502361,-7105.977043,814.226536,-5439.278036
1368.502686,-16210.510130,2664.741391,7967.393179
1368.503012,-9104.533087,1628.453072,306.438199
1368.503337,-740.205942,-222.061783,-8886.707777
1368.503663,-9696.697840,370.102971,3217.601092
1368.503988,-18875.251521,1702.473667,14862.252661
1368.504314,-10881.027347,-740.205942,2298.286494
1368.504639,-1406.391290,-2368.659014,-7277.907231
1368.504965,-10436.903782,0.000000,6052.154434
1368.505291,-16580.613101,2146.597232,10035.851024
1368.505616,-6143.709319,1110.308913,-5975.544884
1368.505942,-2368.659014,0.000000,-11568.042020
1368.506267,-13545.768739,1628.453072,-459.657299
1368.506593,-14211.954086,1480.411884,5975.544884
1368.506918,-4663.297435,-740.205942,-7967.393179
1368.507244,-3701.029710,-1998.556043,-7890.783629
1368.507569,-13989.892304,-666.185348,10495.508323
1368.507895,-14730.098246,-518.144159,9576.193725
1368.508221,-4145.153275,-2442.679609,-7201.297681
1368.508546,-5033.400406,-1628.453072,-3370.820191
1368.508872,-17764.942608,1628.453072,8810.098227
1368.509197,-13841.851115,962.267725,4290.134789
1368.509523,-2072.576638,-666.185348,-10801.946522
1368.509848,-7920.203579,-666.185348,-5745.716235
1368.510174,-16432.571912,1554.432478,8810.098227
1368.510500,-10732.986159,370.102971,0.000000
1368.510825,-1702.473667,-1406.391290,-10342.289223
1368.511151,-8586.388927,-1036.288319,383.047749
1368.511476,-17690.922014,666.185348,13406.671215
1368.511802,-10214.842000,-740.205942,0.000000
1368.512127,-148.041188,-2294.638420,-9422.974625
1368.512453,-10584.944971,-592.164754,2374.896044
1368.512778,-16950.716072,2072.576638,9729.412825
1368.513104,-6291.750507,1406.391290,-6281.983084
1368.513430,-1998.556043,296.082377,-11338.213370
1368.513755,-13767.830521,1332.370696,2987.772442
1368.514081,-16728.654289,1850.514855,9499.584175
1368.514406,-5551.544565,-518.144159,-5669.106685
1368.514732,-2368.659014,-1406.391290,-6281.983084
1368.515057,-13101.645173,518.144159,9269.755526
1368.515383,-14434.015869,814.226536,10725.336972
1368.515708,-4145.153275,-444.123565,-7814.174080
1368.516034,-5255.462188,-888.247130,-5669.106685
1368.516360,-16062.468941,814.226536,7737.564530
1368.516685,-12805.562797,2072.576638,3447.429741
1368.517011,-2072.576638,370.102971,-10418.898773
1368.517336,-6809.894666,148.041188,-5515.887586
1368.517662,-16062.468941,1628.453072,8197.221829
1368.517987,-9992.780217,1332.370696,2451.505594
1368.518313,-1258.350101,-74.020594,-10265.679673
1368.518638,-8660.409521,740.205942,-229.828649
1368.518964,-18875.251521,2812.782580,13330.061665
1368.519290,-11177.109724,666.185348,1532.190996
1368.519615,-1702.473667,-2220.617826,-7584.345430
1368.519941,-10732.986159,-888.247130,2145.067394
1368.520266,-17172.777854,1110.308913,10955.165621
1368.520592,-6957.935855,0.000000,-2528.115143
1368.520917,-740.205942,-962.267725,-9882.631924
1368.521243,-12435.459826,444.123565,2298.286494
1368.521568,-16580.613101,1924.535449,7737.564530
1368.521894,-6069.688724,-666.185348,-8503.660028
1368.522219,-2072.576638,-1628.453072,-9806.022374
1368.522545,-13323.706956,-370.102971,5439.278036
1368.522871,-14878.139434,74.020594,10035.851024
1368.523196,-4293.194464,-1480.411884,-4213.525239
1368.523522,-4663.297435,-740.205942,-3524.039291
1368.523847,-16284.530724,1258.350101,11261.603821
1368.524173,-14211.954086,1480.411884,5286.058936
1368.524498,-3849.070898,-740.205942,-10648.727422
1368.524824,-6661.853478,-370.102971,-5592.497135
1368.525149,-15988.448347,1332.370696,7737.564530
1368.525475,-10732.986159,1036.288319,2987.772442
1368.525800,-1406.391290,-1406.391290,-9652.803275
1368.526126,-7402.059420,-962.267725,-2604.724693
1368.526452,-16950.716072,1406.391290,11108.384721
1368.526777,-10807.006753,-740.205942,-383.047749
1368.527103,-1036.288319,-2220.617826,-9499.584175
1368.527428,-9400.615463,-1110.308913,2987.772442
1368.527754,-16654.633695,814.226536,11568.042020
1368.528079,-6809.894666,592.164754,-1455.581446
1368.528405,-1406.391290,-444.123565,-9959.241474
1368.528730,-13101.645173,1110.308913,229.828649
1368.529056,-16654.633695,2220.617826,7660.954980
1368.529381,-6069.688724,592.164754,-7048.078582
1368.529707,-3330.926739,0.000000,-7660.954980
1368.530033,-15100.201217,962.267725,7967.393179
1368.530358,-16580.613101,1702.473667,10112.460574
1368.530684,-5107.421000,-1406.391290,-4596.572988
1368.531009,-3701.029710,-1776.494261,-4366.744339
1368.531335,-14804.118840,592.164754,9729.412825
1368.531660,-14285.974681,1332.370696,7737.564530
1368.531986,-2368.659014,0.000000,-8886.707777
1368.532311,-4293.194464,0.000000,-5592.497135
1368.532637,-16580.613101,2220.617826,6741.640382
1368.532962,-11769.274478,2368.659014,-229.828649
1368.533288,-2072.576638,518.144159,-11261.603821
1368.533614,-8364.327145,518.144159,-3140.991542
1368.533939,-17320.819043,2146.597232,13406.671215
1368.534265,-11547.212695,444.123565,3753.867940
1368.534590,-2368.659014,-2220.617826,-7814.174080
1368.534916,-9770.718434,-962.267725,3294.210641
1368.535241,-16580.613101,1184.329507,11031.775171
1368.535567,-7105.977043,0.000000,-3140.991542
1368.535892,-444.123565,-1036.288319,-11414.822920
1368.536218,-10955.047942,444.123565,-766.095498
1368.536543,-16506.592507,2368.659014,7354.516781
1368.536869,-6957.935855,-222.061783,-7737.564530
1368.537195,-2738.761985,-1554.432478,-11951.089769
1368.537520,-12435.459826,-1184.329507,5975.544884
1368.537846,-14359.995275,-592.164754,11031.775171
1368.538171,-4737.318029,-1480.411884,-3294.210641
1368.538497,-4959.379811,-518.144159,-3064.381992
1368.538822,-17098.757260,1924.535449,7737.564530
1368.539148,-15840.407159,1776.494261,5439.278036
1368.539473,-3923.091493,-1110.308913,-12257.527968
1368.539799,-5181.441594,-1184.329507,-8350.440928
1368.540124,-15174.221811,444.123565,8273.831378
1368.540450,-11843.295072,148.041188,5439.278036
1368.540776,-1628.453072,-1406.391290,-5669.106685
1368.541101,-7105.977043,-1036.288319,-383.047749
1368.541427,-17246.798449,592.164754,10801.946522
1368.541752,-12509.480420,-592.164754,766.095498
1368.542078,-1850.514855,-1702.473667,-10725.336972
1368.542403,-7624.121203,-962.267725,0.000000
1368.542729,-15470.304188,1036.288319,11108.384721
1368.543054,-7550.100608,0.000000,0.000000
1368.543380,-1184.329507,0.000000,-7431.126331
1368.543706,-12731.542202,1850.514855,1225.752797
1368.544031,-17616.901420,2738.761985,9422.974625
1368.544357,-7402.059420,814.226536,-4749.792088
1368.544682,-2368.659014,-740.205942,-7890.783629
1368.545008,-12435.459826,518.144159,7967.393179
1368.545333,-15618.345376,1406.391290,11414.822920
1368.545659,-5625.565159,0.000000,-4060.306139
1368.545984,-2886.803174,-148.041188,-6511.811733
1368.546310,-13989.892304,1702.473667,4596.572988
1368.546635,-14878.139434,2442.679609,3753.867940
1368.546961,-3775.050304,444.123565,-12257.527968
1368.547287,-3997.112087,-222.061783,-8503.660028
1368.547612,-15174.221811,1406.391290,8044.002729
1368.547938,-12139.377449,888.247130,4903.011187
1368.548263,-2072.576638,-1480.411884,-7507.735880
1368.548589,-6957.935855,-222.061783,-2374.896044
1368.548914,-17690.922014,2812.782580,10189.070123
1368.549240,-13175.665768,888.247130,2298.286494
1368.549565,-3849.070898,-1554.432478,-11108.384721
1368.549891,-8586.388927,-666.185348,0.000000
1368.550216,-16506.592507,962.267725,11721.261119
1368.550542,-9400.615463,74.020594,0.000000
1368.550868,-962.267725,-1258.350101,-9806.022374
1368.551193,-9474.636058,-1184.329507,-766.095498
1368.551519,-16580.613101,740.205942,8273.831378
1368.551844,-8512.368333,-740.205942,-5209.449386
1368.552170,-2812.782580,-1406.391290,-10725.336972
1368.552495,-12139.377449,-370.102971,6971.469032
1368.552821,-16062.468941,0.000000,11951.089769
1368.553146,-5329.482782,-1628.453072,-3064.381992
1368.553472,-2960.823768,-2368.659014,-5745.716235
1368.553797,-15322.262999,444.123565,5515.887586
1368.554123,-15396.283594,1480.411884,8503.660028
1368.554449,-4293.194464,0.000000,-8733.488677
1368.554774,-4441.235652,-222.061783,-6971.469032
1368.555100,-15100.201217,1036.288319,8733.488677
1368.555425,-14063.912898,962.267725,4443.353888
1368.555751,-2960.823768,-888.247130,-8120.612279
1368.556076,-5699.585753,-740.205942,-2834.553343
1368.556402,-16876.695478,444.123565,10648.727422
1368.556727,-11843.295072,518.144159,5209.449386
1368.557053,-592.164754,-1258.350101,-9882.631924
1368.557378,-7624.121203,-666.185348,-995.924147
1368.557704,-17246.798449,1406.391290,10648.727422
1368.558030,-9252.574275,1480.411884,-1072.533697
1368.558355,-592.164754,296.082377,-9806.022374
1368.558681,-9474.636058,1850.514855,0.000000
1368.559006,-17690.922014,3256.906145,10035.851024
1368.559332,-9400.615463,1110.308913,-3753.867940
1368.559657,-2738.761985,-518.144159,-11491.432470
1368.559983,-11695.253884,148.041188,5056.230287
1368.560308,-15470.304188,962.267725,10955.165621
1368.560634,-5403.503377,0.000000,-3370.820191
1368.560959,-1554.432478,-444.123565,-6435.202183
1368.561285,-14359.995275,1776.494261,3294.210641
1368.561611,-16358.551318,2368.659014,4979.620737
1368.561936,-5181.441594,0.000000,-10342.289223
1368.562262,-3997.112087,-518.144159,-10801.946522
1368.562587,-14804.118840,962.267725,6665.030833
1368.562913,-12361.439231,592.164754,6281.983084
1368.563238,-1850.514855,-1332.370696,-6741.640382
1368.563564,-5329.482782,-962.267725,-1532.190996
1368.563889,-17468.860231,1776.494261,9116.536426
1368.564215,-13471.748144,74.020594,3447.429741
1368.564540,-2738.761985,-1628.453072,-9729.412825
1368.564866,-7550.100608,-1184.329507,-1608.800546
1368.565192,-16358.551318,1036.288319,13176.842566
1368.565517,-9844.739029,-518.144159,2068.457845
1368.565843,-888.247130,-1924.535449,-8350.440928
1368.566168,-8956.491898,-592.164754,153.219100
1368.566494,-17690.922014,1110.308913,8120.612279
1368.566819,-9474.636058,0.000000,-3294.210641
1368.567145,-1554.432478,-1776.494261,-10648.727422
1368.567470,-11029.068536,-888.247130,5209.449386
1368.567796,-15766.386565,518.144159,12947.013916
1368.568121,-5699.585753,-814.226536,-3217.601092
1368.568447,-2368.659014,-962.267725,-7431.126331
1368.568773,-14359.995275,1332.370696,4213.525239
1368.569098,-17024.736666,1924.535449,7660.954980
1368.569424,-5847.626942,-370.102971,-6741.640382
1368.569749,-4959.379811,-592.164754,-5975.544884
1368.570075,-15396.283594,962.267725,10648.727422
1368.570400,-13101.645173,370.102971,9039.926876
1368.570726,-2368.659014,-1184.329507,-8273.831378
1368.571051,-4811.338623,-1332.370696,-6128.763984
1368.571377,-15396.283594,1628.453072,6358.592633
1368.571703,-13175.665768,1332.370696,1608.800546
1368.572028,-1628.453072,-222.061783,-11414.822920
1368.572354,-5995.668130,-296.082377,-3294.210641
1368.572679,-15914.427753,814.226536,11031.775171
1368.573005,-10510.924376,518.144159,1685.410096
1368.573330,-1480.411884,-962.267725,-9499.584175
1368.573656,-9252.574275,962.267725,-1072.533697
1368.573981,-18283.086767,2664.741391,9729.412825
1368.574307,-11029.068536,814.226536,-2221.676944
1368.574632,-2516.700203,-1184.329507,-10112.460574
1368.574958,-11029.068536,0.000000,3830.477490
1368.575284,-15988.448347,1480.411884,12104.308868
1368.575609,-6365.771101,-666.185348,-2374.896044
1368.575935,-1554.432478,-1332.370696,-7737.564530
1368.576260,-11769.274478,444.123565,3064.381992
1368.576586,-16876.695478,2220.617826,7814.174080
1368.576911,-6809.894666,0.000000,-9193.145976
1368.577237,-3627.009116,-1184.329507,-9729.412825
1368.577562,-14211.954086,814.226536,7584.345430
1368.577888,-13619.789333,1110.308913,8656.879127
1368.578213,-2442.679609,-740.205942,-7048.078582
1368.578539,-4811.338623,-740.205942,-5592.497135
1368.578865,-17024.736666,1702.473667,8580.269578
1368.579190,-14063.912898,1628.453072,5592.497135
1368.579516,-2442.679609,-1184.329507,-10189.070123
1368.579841,-5773.606348,-1258.350101,-1915.238745
1368.580167,-16728.654289,962.267725,13636.499864
1368.580492,-10955.047942,222.061783,4903.011187
1368.580818,-1332.370696,-814.226536,-8580.269578
1368.581143,-8586.388927,-592.164754,-3524.039291
1368.581469,-17616.901420,1110.308913,9346.365076
1368.581794,-9622.677246,-370.102971,-2451.505594
1368.582120,-888.247130,-1850.514855,-11568.042020
1368.582446,-9992.780217,-518.144159,2528.115143
1368.582771,-16432.571912,740.205942,12257.527968
1368.583097,-6439.791695,-296.082377,-2451.505594
1368.583422,-1184.329507,-1258.350101,-9882.631924
1368.583748,-13989.892304,814.226536,842.705048
1368.584073,-18135.045579,1554.432478,8656.879127
1368.584399,-6217.729913,-592.164754,-6205.373534
1368.584724,-3108.864956,-1110.308913,-6818.249932
1368.585050,-14359.995275,814.226536,10035.851024
1368.585375,-15396.283594,814.226536,10035.851024
1368.585701,-4811.338623,-592.164754,-7048.078582
1368.586027,-4145.153275,-1258.350101,-7277.907231
1368.586352,-15618.345376,1480.411884,5669.106685
1368.586678,-14063.912898,1036.288319,5132.839837
1368.587003,-2516.700203,-740.205942,-10572.117872
1368.587329,-4737.318029,-518.144159,-4443.353888
1368.587654,-15692.365970,1406.391290,9806.022374
1368.587980,-11177.109724,148.041188,2221.676944
1368.588305,-814.226536,-1036.288319,-10112.460574
1368.588631,-8660.409521,370.102971,-2068.457845
1368.588956,-17987.004391,2664.741391,11261.603821
1368.589282,-10362.883188,1036.288319,919.314598
1368.589608,-2516.700203,-962.267725,-10572.117872
1368.589933,-9400.615463,148.041188,1225.752797
1368.590259,-15470.304188,740.205942,11108.384721
1368.590584,-6883.915261,-962.267725,-2221.676944
1368.590910,-962.267725,-1332.370696,-8044.002729
1368.591235,-11991.336260,740.205942,3370.820191
1368.591561,-17246.798449,2146.597232,10572.117872
1368.591886,-6883.915261,-592.164754,-6741.640382
1368.592212,-2812.782580,-1110.308913,-10495.508323
1368.592537,-13249.686362,444.123565,5362.668486
1368.592863,-14285.974681,1332.370696,7277.907231
1368.593189,-2516.700203,-1184.329507,-6665.030833
1368.593514,-2960.823768,-1110.308913,-5209.449386
1368.593840,-16506.592507,1850.514855,7967.393179
1368.594165,-15692.365970,1258.350101,6971.469032
1368.594491,-4811.338623,-1332.370696,-9959.241474
1368.594816,-6291.750507,-1702.473667,-3064.381992
1368.595142,-15692.365970,888.247130,13176.842566
1368.595467,-11473.192101,0.000000,5209.449386
1368.595793,-2368.659014,-1332.370696,-7737.564530
1368.596118,-7994.224174,-592.164754,-2451.505594
1368.596444,-17172.777854,1776.494261,7890.783629
1368.596770,-10436.903782,222.061783,-1302.362347
1368.597095,-2368.659014,-1406.391290,-12257.527968
1368.597421,-9178.553681,-444.123565,1991.848295
1368.597746,-15840.407159,814.226536,12640.575717
1368.598072,-7179.997637,-296.082377,-766.095498
1368.598397,-1480.411884,-1628.453072,-8273.831378
1368.598723,-12731.542202,592.164754,1915.238745
1368.599048,-17468.860231,1702.473667,9269.755526
1368.599374,-6513.812290,-148.041188,-5515.887586
1368.599700,-3330.926739,-74.020594,-7354.516781
1368.600025,-13767.830521,1628.453072,8503.660028
1368.600351,-14285.974681,1702.473667,9806.022374
1368.600676,-4071.132681,-814.226536,-7354.516781
1368.601002,-3404.947333,-740.205942,-7890.783629
1368.601327,-15100.201217,1554.432478,4290.134789
1368.601653,-13841.851115,1702.473667,5592.497135
1368.601978,-2294.638420,-592.164754,-9729.412825
1368.602304,-4293.194464,-888.247130,-4443.353888
1368.602629,-15544.324782,1480.411884,10265.679673
1368.602955,-12361.439231,740.205942,2604.724693
1368.603281,-2294.638420,-888.247130,-10112.460574
1368.603606,-7105.977043,0.000000,-2911.162892
1368.603932,-16802.674883,1850.514855,10495.508323
1368.604257,-10732.986159,518.144159,3370.820191
1368.604583,-2886.803174,-814.226536,-9116.536426
1368.604908,-10362.883188,518.144159,1378.971896
1368.605234,-16802.674883,1628.453072,11491.432470
1368.605559,-8956.491898,-148.041188,-2451.505594
1368.605885,-2072.576638,-1184.329507,-10495.508323
1368.606210,-11251.130318,0.000000,919.314598
1368.606536,-16358.551318,962.267725,9806.022374
1368.606862,-7105.977043,-962.267725,-4136.915689
1368.607187,-2220.617826,-1850.514855,-9499.584175
1368.607513,-12213.398043,0.000000,4903.011187
1368.607838,-15766.386565,148.041188,9039.926876
1368.608164,-4885.359217,-1036.288319,-5745.716235
1368.608489,-2738.761985,-740.205942,-5898.935335
1368.608815,-15248.242405,2072.576638,7277.907231
1368.609140,-15174.221811,1480.411884,7277.907231
1368.609466,-3701.029710,-740.205942,-9729.412825
1368.609791,-4811.338623,-1110.308913,-7354.516781
1368.610117,-15100.201217,1332.370696,8427.050478
1368.610443,-12657.521608,148.041188,5286.058936
1368.610768,-2590.720797,-1036.288319,-7354.516781
1368.611094,-5995.668130,-740.205942,-1149.143247
1368.611419,-16802.674883,962.267725,10495.508323
1368.611745,-12435.459826,222.061783,1532.190996
1368.612070,-1850.514855,-1480.411884,-12180.918418
1368.612396,-6883.915261,-518.144159,-2757.943793
1368.612721,-15692.365970,814.226536,10495.508323
1368.613047,-7994.224174,296.082377,-766.095498
1368.613372,-296.082377,-444.123565,-8886.707777
1368.613698,-11177.109724,1406.391290,1838.629195
1368.614024,-18357.107362,2812.782580,9499.584175
1368.614349,-8882.471304,814.226536,-4519.963438
1368.614675,-3256.906145,-518.144159,-10955.165621
1368.615000,-12435.459826,518.144159,4903.011187
1368.615326,-15322.262999,1554.432478,11721.261119
1368.615651,-4737.318029,-592.164754,-2987.772442
1368.615977,-2368.659014,-222.061783,-5286.058936
1368.616302,-14359.995275,1480.411884,6052.154434
1368.616628,-16210.510130,1702.473667,6665.030833
1368.616953,-4663.297435,-888.247130,-10495.508323
1368.617279,-3256.906145,-962.267725,-8503.660028
1368.617605,-14137.933492,1406.391290,8197.221829
1368.617930,-12583.501014,666.185348,6435.202183
1368.618256,-1998.556043,-740.205942,-8656.879127
1368.618581,-6217.729913,-592.164754,-4903.011187
1368.618907,-17542.880825,1480.411884,8350.440928
1368.619232,-12731.542202,296.082377,2681.334243
1368.619558,-2664.741391,-1628.453072,-8963.317327
1368.619883,-8734.430116,-518.144159,1532.190996
1368.620209,-16950.716072,962.267725,14096.157163
1368.620534,-9844.739029,-518.144159,1991.848295
1368.620860,-1702.473667,-1332.370696,-9499.584175
1368.621185,-9696.697840,0.000000,-1762.019645
1368.621511,-16580.613101,1406.391290,7890.783629
1368.621836,-8290.306550,-666.185348,-4596.572988
1368.622162,-1998.556043,-1554.432478,-10418.898773
1368.622487,-11103.089130,-148.041188,4290.134789
1368.622813,-15914.427753,962.267725,11261.603821
1368.623138,-6661.853478,-592.164754,-4749.792088
1368.623464,-3034.844362,-1332.370696,-7737.564530
1368.623789,-14211.954086,1332.370696,5132.839837
1368.624115,-15692.365970,1702.473667,8810.098227
1368.624440,-5107.421000,0.000000,-6281.983084
1368.624766,-4441.235652,-666.185348,-6128.763984
1368.625092,-14508.036463,962.267725,8273.831378
1368.625417,-12731.542202,1036.288319,5132.839837
1368.625743,-2590.720797,-1110.308913,-9269.755526
1368.626068,-4811.338623,-518.144159,-4749.792088
1368.626394,-15988.448347,1258.350101,9269.755526
1368.626719,-12731.542202,148.041188,4596.572988
1368.627045,-2368.659014,-1702.473667,-9269.755526
1368.627370,-6957.935855,-666.185348,-2604.724693
1368.627696,-15988.448347,1110.308913,9499.584175
1368.628021,-9918.759623,74.020594,-536.266849
1368.628347,-1332.370696,-1110.308913,-9806.022374
1368.628672,-10066.800811,1406.391290,-153.219100
1368.628998,-17912.983796,3108.864956,11414.822920
1368.629323,-9474.636058,814.226536,-995.924147
1368.629649,-2664.741391,-888.247130,-9269.755526
1368.629974,-11843.295072,666.185348,2681.334243
1368.630300,-16136.489536,1110.308913,9499.584175
1368.630625,-5773.606348,-962.267725,-3830.477490
1368.630951,-1850.514855,-1332.370696,-5898.935335
1368.631276,-13323.706956,444.123565,7124.688131
1368.631602,-15544.324782,888.247130,9729.412825
1368.631927,-5107.421000,-666.185348,-7507.735880
1368.632253,-3627.009116,-1110.308913,-9652.803275
1368.632578,-14137.933492,1110.308913,5056.230287
1368.632904,-13767.830521,1258.350101,4673.182538
1368.633229,-2368.659014,-740.205942,-8733.488677
1368.633555,-5329.482782,0.000000,-4060.306139
1368.633880,-16728.654289,1332.370696,10342.289223
1368.634206,-13619.789333,962.267725,5056.230287
1368.634532,-2738.761985,-1776.494261,-9806.022374
1368.634857,-7105.977043,-1480.411884,-2145.067394
1368.635183,-16210.510130,666.185348,11414.822920
1368.635508,-10584.944971,222.061783,2451.505594
1368.635834,-1628.453072,0.000000,-8886.707777
1368.636159,-9400.615463,74.020594,-1225.752797
1368.636485,-16876.695478,2072.576638,7967.393179
1368.636810,-9178.553681,0.000000,-4673.182538
1368.637136,-1776.494261,-1776.494261,-12257.527968
1368.637461,-10214.842000,-740.205942,1762.019645
1368.637787,-16062.468941,888.247130,12180.918418
1368.638112,-7328.038826,0.000000,-1991.848295
1368.638438,-2516.700203,-1406.391290,-7201.297681
1368.638763,-13545.768739,814.226536,3217.601092
1368.639089,-16284.530724,1702.473667,6511.811733
1368.639414,-4737.318029,-666.185348,-8656.879127
1368.639740,-2368.659014,-1110.308913,-8044.002729
1368.640065,-14211.954086,1036.288319,8503.660028
1368.640391,-15914.427753,1628.453072,9193.145976
1368.640716,-4219.173869,0.000000,-7201.297681
1368.641042,-4811.338623,-222.061783,-5592.497135
1368.641367,-16358.551318,814.226536,7507.735880
1368.641693,-13027.624579,0.000000,5056.230287
1368.642018,-2072.576638,-1480.411884,-8350.440928
1368.642344,-5921.647536,-518.144159,-766.095498
1368.642669,-16062.468941,1554.432478,11874.480219
1368.642995,-11251.130318,592.164754,1915.238745
1368.643320,-1776.494261,-592.164754,-11261.603821
1368.643646,-9474.636058,296.082377,-3447.429741
1368.643971,-17838.963202,2368.659014,9039.926876
1368.644297,-9400.615463,666.185348,0.000000
1368.644623,-888.247130,-1036.288319,-7660.954980
1368.644948,-10584.944971,74.020594,4519.963438
1368.645274,-17468.860231,1332.370696,11414.822920
1368.645599,-7994.224174,-370.102971,-3447.429741
1368.645925,-2664.741391,-1110.308913,-8810.098227
1368.646250,-11991.336260,370.102971,3830.477490
1368.646576,-15544.324782,888.247130,9882.631924
1368.646901,-5329.482782,-1258.350101,-5975.544884
1368.647227,-2738.761985,-1702.473667,-8044.002729
1368.647552,-14137.933492,740.205942,5132.839837
1368.647878,-14063.912898,666.185348,5898.935335
1368.648203,-2516.700203,-1480.411884,-8503.660028
1368.648529,-4515.256246,-592.164754,-5592.497135
1368.648854,-16432.571912,1998.556043,10418.898773
1368.649180,-14952.160028,1776.494261,6741.640382
1368.649505,-3775.050304,-740.205942,-9039.926876
1368.649831,-6069.688724,-962.267725,-4519.963438
1368.650156,-15692.365970,814.226536,7814.174080
1368.650482,-11177.109724,-148.041188,919.314598
1368.650807,-2220.617826,-1406.391290,-8427.050478
1368.651133,-8364.327145,222.061783,383.047749
1368.651458,-17098.757260,1406.391290,12870.404366
1368.651784,-10436.903782,-444.123565,-536.266849
1368.652109,-2368.659014,-1480.411884,-12027.699319
1368.652435,-10807.006753,0.000000,-306.438199
1368.652760,-16580.613101,1554.432478,8733.488677
1368.653086,-6365.771101,-518.144159,-3140.991542
1368.653411,-1258.350101,-888.247130,-7354.516781
1368.653737,-12435.459826,1110.308913,4903.011187
1368.654063,-17394.839637,1702.473667,9959.241474
1368.654388,-7254.018232,74.020594,-7354.516781
1368.654714,-3256.906145,-296.082377,-8427.050478
1368.655039,-13693.809927,962.267725,6894.859482
1368.655365,-14063.912898,814.226536,8810.098227
1368.655690,-3108.864956,-296.082377,-5592.497135
1368.656016,-3849.070898,-444.123565,-4213.525239
1368.656341,-15396.283594,1628.453072,8886.707777
1368.656667,-13989.892304,1258.350101,5362.668486
1368.656992,-2368.659014,-518.144159,-11491.432470
1368.657318,-4441.235652,0.000000,-6588.421283
1368.657643,-15840.407159,1628.453072,8580.269578
1368.657969,-12139.377449,888.247130,2221.676944
1368.658294,-1702.473667,-1036.288319,-8503.660028
1368.658620,-7254.018232,74.020594,-919.314598
1368.658945,-17616.901420,1480.411884,11874.480219
1368.659271,-11547.212695,740.205942,536.266849
1368.659596,-2664.741391,-444.123565,-11491.432470
1368.659922,-10732.986159,-148.041188,842.705048
1368.660247,-17098.757260,1184.329507,10572.117872
1368.660573,-7698.141797,-814.226536,-2221.676944
1368.660898,-1036.288319,-1480.411884,-8120.612279
1368.661224,-11177.109724,296.082377,2681.334243
1368.661549,-16654.633695,1110.308913,9652.803275
1368.661875,-6883.915261,-1036.288319,-7890.783629
1368.662200,-1998.556043,-1332.370696,-11874.480219
1368.662526,-13101.645173,592.164754,4903.011187
1368.662851,-15174.221811,888.247130,8044.002729
1368.663177,-4293.194464,-814.226536,-5592.497135
1368.663502,-3775.050304,-814.226536,-3983.696590
1368.663828,-16136.489536,888.247130,8656.879127
1368.664154,-14952.160028,444.123565,7890.783629
1368.664479,-2886.803174,-740.205942,-9193.145976
1368.664805,-5847.626942,-962.267725,-5592.497135
1368.665130,-15396.283594,1184.329507,9576.193725
1368.665456,-11325.150913,370.102971,3677.258390
1368.665781,-2442.679609,-962.267725,-8656.879127
1368.666107,-7328.038826,148.041188,-766.095498
1368.666432,-18357.107362,1776.494261,10265.679673
1368.666758,-11843.295072,592.164754,1225.752797
1368.667083,-888.247130,-962.267725,-11108.384721
1368.667409,-8512.368333,-592.164754,153.219100
1368.667734,-15618.345376,740.205942,10955.165621
1368.668060,-6883.915261,-444.123565,-1378.971896
1368.668385,-814.226536,-1110.308913,-7201.297681
1368.668711,-11917.315666,1628.453072,3677.258390
1368.669036,-17690.922014,2516.700203,9652.803275
1368.669362,-7550.100608,1036.288319,-5592.497135
1368.669687,-3330.926739,-222.061783,-11108.384721
1368.670013,-13693.809927,1480.411884,5822.325785
1368.670338,-15396.283594,1036.288319,9806.022374
1368.670664,-4071.132681,-1036.288319,-5439.278036
1368.670989,-2442.679609,-814.226536,-4060.306139
1368.671315,-15618.345376,1554.432478,6818.249932
1368.671640,-14952.160028,1554.432478,4596.572988
1368.671966,-3108.864956,-1258.350101,-11874.480219
1368.672291,-4811.338623,-740.205942,-8120.612279
1368.672617,-15026.180623,740.205942,8733.488677
1368.672942,-11843.295072,740.205942,4903.011187
1368.673268,-2664.741391,-1110.308913,-7814.174080
1368.673593,-7031.956449,148.041188,-689.485948
1368.673919,-18135.045579,1258.350101,9499.584175
1368.674245,-11769.274478,222.061783,-383.047749
1368.674570,-1998.556043,-1480.411884,-11261.603821
1368.674896,-9030.512492,-296.082377,306.438199
1368.675221,-16580.613101,888.247130,13100.233016
1368.675547,-8438.347739,-444.123565,-536.266849
1368.675872,-1332.370696,-1258.350101,-7660.954980
1368.676198,-10510.924376,0.000000,1915.238745
1368.676523,-16950.716072,1110.308913,7967.393179
1368.676849,-7698.141797,-444.123565,-6435.202183
1368.677174,-2294.638420,-1332.370696,-9576.193725
1368.677500,-12805.562797,370.102971,6971.469032
1368.677825,-14730.098246,666.185348,12257.527968
1368.678151,-4441.235652,-740.205942,-5515.887586
1368.678476,-3330.926739,-1332.370696,-6281.983084
1368.678802,-15988.448347,1776.494261,6205.373534
1368.679127,-15470.304188,1480.411884,4903.011187
1368.679453,-3330.926739,-666.185348,-9116.536426
1368.679778,-4663.297435,-592.164754,-5439.278036
1368.680104,-16062.468941,1258.350101,11874.480219
1368.680429,-12361.439231,-74.020594,6435.202183
1368.680755,-1184.329507,-1480.411884,-8273.831378
1368.681080,-6143.709319,-1036.288319,-2451.505594
1368.681406,-17320.819043,1110.308913,9806.022374
1368.681731,-11843.295072,444.123565,842.705048
1368.682057,-2368.659014,-592.164754,-10955.165621
1368.682382,-9474.636058,148.041188,-1072.533697
1368.682708,-16432.571912,1702.473667,10648.727422
1368.683033,-8142.265362,-592.164754,-2068.457845
1368.683359,-1110.308913,-1480.411884,-10112.460574
1368.683685,-11695.253884,444.123565,766.095498
1368.684010,-17172.777854,2220.617826,10035.851024
1368.684336,-7179.997637,444.123565,-4749.792088
1368.684661,-4219.173869,-370.102971,-9193.145976
1368.684987,-13841.851115,740.205942,4366.744339
1368.685312,-15396.283594,888.247130,8656.879127
1368.685638,-4589.276840,-518.144159,-5975.544884
1368.685963,-1332.370696,-1036.288319,-6435.202183
1368.686289,-13693.809927,1110.308913,7048.078582
1368.686614,-15100.201217,1776.494261,7201.297681
1368.686940,-4367.215058,-444.123565,-10342.289223
1368.687265,-5847.626942,-370.102971,-8273.831378
1368.687591,-15766.386565,592.164754,7048.078582
1368.687916,-11473.192101,518.144159,4290.134789
1368.688242,-740.205942,-1480.411884,-8580.269578
1368.688567,-5255.462188,-666.185348,-1225.752797
1368.688893,-17024.736666,2072.576638,10265.679673
1368.689218,-13545.768739,518.144159,2911.162892
1368.689544,-3627.009116,-444.123565,-10955.165621
1368.689869,-9030.512492,-222.061783,-612.876398
1368.690195,-17098.757260,1184.329507,12104.308868
1368.690520,-8660.409521,-740.205942,919.314598
1368.690846,-444.123565,-1628.453072,-6741.640382
1368.691171,-9622.677246,0.000000,1685.410096
1368.691497,-16728.654289,1258.350101,9346.365076
1368.691822,-7550.100608,74.020594,-5209.449386
1368.692148,-2960.823768,-740.205942,-12257.527968
1368.692473,-12953.603985,518.144159,4060.306139
1368.692799,-15544.324782,740.205942,10801.946522
1368.693124,-5921.647536,-888.247130,-2681.334243
1368.693450,-3108.864956,-1702.473667,-3600.648841
1368.693776,-14878.139434,1258.350101,7431.126331
1368.694101,-15322.262999,1702.473667,7048.078582
1368.694427,-3997.112087,-370.102971,-9806.022374
1368.694752,-4737.318029,-370.102971,-8810.098227
1368.695078,-14952.160028,1110.308913,8503.660028
1368.695403,-12509.480420,888.247130,5209.449386
1368.695729,-2368.659014,-962.267725,-6894.859482
1368.696054,-6143.709319,-592.164754,-2451.505594
1368.696380,-17024.736666,1110.308913,8733.488677
1368.696705,-13101.645173,148.041188,2528.115143
1368.697031,-2072.576638,-1406.391290,-10878.556072
1368.697356,-7920.203579,0.000000,-1072.533697
1368.697682,-16210.510130,1554.432478,11951.089769
1368.698007,-8808.450710,666.185348,612.876398
1368.698333,-740.205942,-740.205942,-9499.584175
1368.698658,-10436.903782,1258.350101,-689.485948
1368.698984,-16728.654289,1850.514855,6818.249932
1368.699309,-7846.182985,148.041188,-4979.620737
1368.699635,-2368.659014,-1110.308913,-11491.432470
1368.699960,-12213.398043,518.144159,5822.325785
1368.700286,-15396.283594,962.267725,12947.013916
1368.700611,-5699.585753,-962.267725,-2987.772442
1368.700937,-2960.823768,-1258.350101,-5439.278036
1368.701262,-14804.118840,814.226536,4060.306139
1368.701588,-16210.510130,962.267725,5592.497135
1368.701913,-4219.173869,-962.267725,-9039.926876
1368.702239,-3627.009116,-444.123565,-7737.564530
1368.702564,-13323.706956,1628.453072,8963.317327
1368.702890,-12731.542202,740.205942,6128.763984
1368.703216,-3034.844362,-1110.308913,-8963.317327
1368.703541,-5847.626942,-740.205942,-3600.648841
1368.703867,-16654.633695,1406.391290,8350.440928
1368.704192,-13323.706956,222.061783,4443.353888
1368.704518,-2960.823768,-1332.370696,-8120.612279
1368.704843,-8216.285956,-370.102971,-689.485948
1368.705169,-16432.571912,1110.308913,11951.089769
1368.705494,-9844.739029,0.000000,153.219100
1368.705820,-2664.741391,-1332.370696,-9806.022374
1368.706145,-9622.677246,0.000000,-383.047749
1368.706471,-16802.674883,1628.453072,8886.707777
1368.706796,-8734.430116,-370.102971,-1762.019645
1368.707122,-2442.679609,-962.267725,-9193.145976
1368.707447,-11029.068536,0.000000,3217.601092
