#time,accel_x,accel_y,accel_z
95.334342,-9474.636058,0.000000,229.828649
95.334668,-9622.677246,148.041188,76.609550
95.334995,-9400.615463,0.000000,76.609550
95.335321,-9178.553681,0.000000,306.438199
95.335648,-9548.656652,0.000000,153.219100
95.335974,-9474.636058,0.000000,153.219100
95.336300,-9400.615463,222.061783,0.000000
95.336627,-9400.615463,370.102971,229.828649
95.336953,-9622.677246,0.000000,306.438199
95.337280,-9548.656652,0.000000,306.438199
95.337606,-9400.615463,0.000000,229.828649
95.337932,-9252.574275,0.000000,0.000000
95.338259,-9178.553681,74.020594,306.438199
95.338585,-9326.594869,0.000000,153.219100
95.338912,-9474.636058,74.020594,0.000000
95.339238,-9400.615463,74.020594,76.609550
95.339564,-9252.574275,222.061783,-229.828649
95.339891,-9548.656652,0.000000,76.609550
95.340217,-9400.615463,148.041188,0.000000
95.340544,-9400.615463,222.061783,0.000000
95.340870,-9252.574275,296.082377,0.000000
95.341196,-9474.636058,0.000000,153.219100
95.341523,-9400.615463,74.020594,306.438199
95.341849,-9400.615463,0.000000,459.657299
95.342176,-9474.636058,74.020594,229.828649
95.342502,-9474.636058,0.000000,76.609550
95.342828,-9252.574275,0.000000,76.609550
95.343155,-9474.636058,148.041188,-229.828649
95.343481,-9400.615463,222.061783,0.000000
95.343808,-9178.553681,0.000000,383.047749
95.344134,-9474.636058,296.082377,153.219100
95.344460,-9326.594869,148.041188,153.219100
95.344787,-9474.636058,0.000000,229.828649
95.345113,-9474.636058,74.020594,76.609550
95.345440,-9400.615463,74.020594,306.438199
95.345766,-9400.615463,0.000000,153.219100
95.346092,-9474.636058,222.061783,0.000000
95.346419,-9326.594869,0.000000,0.000000
95.346745,-9252.574275,0.000000,0.000000
95.347072,-9474.636058,222.061783,76.609550
95.347398,-9178.553681,74.020594,0.000000
95.347724,-9326.594869,0.000000,0.000000
95.348051,-9474.636058,0.000000,689.485948
95.348377,-9474.636058,0.000000,229.828649
95.348704,-9622.677246,0.000000,153.219100
95.349030,-9400.615463,0.000000,0.000000
95.349356,-9622.677246,0.000000,76.609550
95.349683,-9696.697840,74.020594,153.219100
95.350009,-9474.636058,0.000000,229.828649
95.350336,-9400.615463,0.000000,0.000000
95.350662,-9326.594869,-148.041188,0.000000
95.350989,-9474.636058,518.144159,229.828649
95.351315,-9622.677246,222.061783,0.000000
95.351641,-9474.636058,148.041188,153.219100
95.351968,-9400.615463,148.041188,153.219100
95.352294,-9474.636058,296.082377,153.219100
95.352621,-9548.656652,-148.041188,0.000000
95.352947,-9548.656652,0.000000,383.047749
95.353273,-9326.594869,74.020594,-153.219100
95.353600,-9400.615463,0.000000,76.609550
95.353926,-9474.636058,74.020594,229.828649
95.354253,-9252.574275,0.000000,0.000000
95.354579,-9326.594869,148.041188,153.219100
95.354905,-9178.553681,74.020594,0.000000
95.355232,-9474.636058,0.000000,229.828649
95.355558,-9400.615463,148.041188,229.828649
95.355884,-9326.594869,0.000000,76.609550
95.356211,-9326.594869,74.020594,76.609550
95.356537,-9326.594869,0.000000,536.266849
95.356864,-9326.594869,148.041188,229.828649
95.357190,-9474.636058,148.041188,0.000000
95.357516,-9400.615463,370.102971,0.000000
95.357843,-9474.636058,148.041188,-153.219100
95.358169,-9474.636058,222.061783,76.609550
95.358495,-9474.636058,0.000000,0.000000
95.358822,-9326.594869,74.020594,76.609550
95.359148,-9252.574275,444.123565,0.000000
95.359475,-9400.615463,74.020594,-229.828649
95.359801,-9252.574275,0.000000,0.000000
95.360127,-9622.677246,296.082377,229.828649
95.360454,-9474.636058,222.061783,0.000000
95.360780,-9474.636058,148.041188,459.657299
95.361106,-9326.594869,0.000000,153.219100
95.361433,-9326.594869,0.000000,306.438199
95.361759,-9474.636058,74.020594,153.219100
95.362086,-9326.594869,-74.020594,306.438199
95.362412,-9474.636058,148.041188,306.438199
95.362738,-9326.594869,148.041188,153.219100
95.363065,-9696.697840,148.041188,76.609550
95.363391,-9622.677246,0.000000,153.219100
95.363717,-9474.636058,74.020594,459.657299
95.364044,-9474.636058,0.000000,306.438199
95.364370,-9326.594869,0.000000,229.828649
95.364697,-9622.677246,0.000000,76.609550
95.365023,-9548.656652,-296.082377,0.000000
95.365349,-9474.636058,74.020594,-153.219100
95.365676,-9400.615463,0.000000,229.828649
95.366002,-9252.574275,-148.041188,153.219100
95.366329,-9474.636058,74.020594,153.219100
95.366655,-9400.615463,0.000000,153.219100
95.366981,-9474.636058,0.000000,0.000000
95.367308,-9474.636058,0.000000,536.266849
95.367634,-9474.636058,-148.041188,229.828649
95.367960,-9326.594869,222.061783,-229.828649
95.368287,-9474.636058,-296.082377,153.219100
95.368613,-9252.574275,148.041188,-306.438199
95.368940,-9622.677246,0.000000,0.000000
95.369266,-9400.615463,0.000000,0.000000
95.369592,-9252.574275,74.020594,0.000000
95.369919,-9400.615463,222.061783,0.000000
95.370245,-9474.636058,74.020594,306.438199
95.370571,-9178.553681,0.000000,153.219100
95.370898,-9474.636058,0.000000,153.219100
95.371224,-9548.656652,296.082377,76.609550
95.371551,-9474.636058,0.000000,459.657299
95.371877,-9474.636058,0.000000,153.219100
95.372203,-9252.574275,148.041188,0.000000
95.372530,-9474.636058,222.061783,0.000000
95.372856,-9326.594869,370.102971,76.609550
95.373182,-9400.615463,296.082377,0.000000
95.373509,-9474.636058,222.061783,0.000000
95.373835,-9474.636058,148.041188,0.000000
95.374162,-9252.574275,0.000000,76.609550
95.374488,-9326.594869,222.061783,0.000000
95.374814,-9400.615463,0.000000,383.047749
95.375141,-9252.574275,296.082377,-153.219100
95.375467,-9474.636058,222.061783,0.000000
95.375793,-9474.636058,0.000000,153.219100
95.376120,-9474.636058,74.020594,76.609550
95.376446,-9030.512492,148.041188,0.000000
95.376773,-9474.636058,148.041188,0.000000
95.377099,-9030.512492,0.000000,306.438199
95.377425,-9178.553681,148.041188,0.000000
95.377752,-9400.615463,0.000000,0.000000
95.378078,-9400.615463,296.082377,0.000000
95.378405,-9326.594869,74.020594,0.000000
95.378731,-9474.636058,0.000000,-76.609550
95.379057,-9548.656652,444.123565,0.000000
95.379384,-9326.594869,370.102971,229.828649
95.379710,-9622.677246,148.041188,76.609550
95.380036,-9548.656652,148.041188,306.438199
95.380363,-9474.636058,0.000000,0.000000
95.380689,-9474.636058,444.123565,459.657299
95.381016,-9326.594869,0.000000,153.219100
95.381342,-9326.594869,-222.061783,0.000000
95.381668,-9474.636058,0.000000,153.219100
95.381995,-9400.615463,0.000000,306.438199
95.382321,-9178.553681,0.000000,306.438199
95.382647,-9400.615463,148.041188,-229.828649
95.382974,-9400.615463,0.000000,0.000000
95.383300,-9474.636058,0.000000,306.438199
95.383627,-9474.636058,296.082377,0.000000
95.383953,-9178.553681,74.020594,76.609550
95.384279,-9326.594869,74.020594,0.000000
95.384606,-9474.636058,0.000000,153.219100
95.384932,-9326.594869,74.020594,536.266849
95.385258,-9474.636058,222.061783,0.000000
95.385585,-9474.636058,0.000000,229.828649
95.385911,-9474.636058,148.041188,-153.219100
95.386238,-9252.574275,0.000000,229.828649
95.386564,-9474.636058,0.000000,0.000000
95.386890,-9474.636058,0.000000,306.438199
95.387217,-9400.615463,0.000000,0.000000
95.387543,-9622.677246,222.061783,153.219100
95.387869,-9622.677246,74.020594,459.657299
95.388196,-9474.636058,148.041188,383.047749
95.388522,-9474.636058,222.061783,229.828649
95.388849,-9474.636058,74.020594,0.000000
95.389175,-9178.553681,148.041188,0.000000
95.389501,-9252.574275,148.041188,0.000000
95.389828,-9326.594869,148.041188,153.219100
95.390154,-9400.615463,148.041188,0.000000
95.390480,-9474.636058,0.000000,229.828649
95.390807,-9252.574275,74.020594,0.000000
95.391133,-9696.697840,222.061783,229.828649
95.391460,-9400.615463,148.041188,306.438199
95.391786,-9474.636058,148.041188,153.219100
95.392112,-9474.636058,148.041188,1072.533697
95.392439,-9400.615463,0.000000,76.609550
95.392765,-9252.574275,0.000000,306.438199
95.393092,-9400.615463,148.041188,229.828649
95.393418,-9622.677246,0.000000,229.828649
95.393744,-9326.594869,148.041188,229.828649
95.394071,-9252.574275,148.041188,-229.828649
95.394397,-9326.594869,0.000000,76.609550
95.394723,-9326.594869,0.000000,0.000000
95.395050,-9326.594869,0.000000,153.219100
95.395376,-9252.574275,0.000000,229.828649
95.395703,-9474.636058,74.020594,0.000000
95.396029,-9474.636058,0.000000,153.219100
95.396355,-9548.656652,222.061783,229.828649
95.396682,-9474.636058,74.020594,306.438199
95.397008,-9474.636058,74.020594,306.438199
95.397334,-9400.615463,222.061783,0.000000
95.397661,-9252.574275,296.082377,0.000000
95.397987,-9474.636058,0.000000,76.609550
95.398314,-9474.636058,222.061783,-76.609550
95.398640,-9252.574275,0.000000,0.000000
95.398966,-9474.636058,0.000000,229.828649
95.399293,-9474.636058,-296.082377,76.609550
95.399619,-9252.574275,0.000000,76.609550
95.399945,-9474.636058,0.000000,383.047749
95.400272,-9252.574275,222.061783,0.000000
95.400598,-9400.615463,592.164754,306.438199
95.400925,-9474.636058,0.000000,76.609550
95.401251,-9474.636058,222.061783,0.000000
95.401577,-9252.574275,0.000000,76.609550
95.401904,-9400.615463,0.000000,229.828649
95.402230,-9252.574275,0.000000,0.000000
95.402556,-9178.553681,74.020594,0.000000
95.402883,-9326.594869,222.061783,-383.047749
95.403209,-9400.615463,296.082377,76.609550
95.403536,-9474.636058,444.123565,383.047749
95.403862,-9474.636058,444.123565,0.000000
95.404188,-9474.636058,74.020594,153.219100
95.404515,-9326.594869,74.020594,76.609550
95.404841,-9178.553681,222.061783,0.000000
95.405168,-9178.553681,0.000000,383.047749
95.405494,-9326.594869,148.041188,153.219100
95.405820,-9400.615463,74.020594,306.438199
95.406147,-9326.594869,148.041188,76.609550
95.406473,-9548.656652,296.082377,0.000000
95.406799,-9400.615463,0.000000,0.000000
95.407126,-9326.594869,0.000000,0.000000
95.407452,-9252.574275,74.020594,153.219100
95.407779,-9252.574275,0.000000,306.438199
95.408105,-9326.594869,0.000000,229.828649
95.408431,-9844.739029,74.020594,0.000000
95.408758,-9548.656652,74.020594,0.000000
95.409084,-9326.594869,0.000000,536.266849
95.409410,-9400.615463,0.000000,0.000000
95.409737,-9548.656652,74.020594,153.219100
95.410063,-9622.677246,148.041188,76.609550
95.410390,-9474.636058,0.000000,0.000000
95.410716,-9400.615463,148.041188,76.609550
95.411042,-9474.636058,0.000000,76.609550
95.411369,-9252.574275,74.020594,0.000000
95.411695,-9104.533087,0.000000,306.438199
95.412021,-9252.574275,222.061783,76.609550
95.412348,-9474.636058,74.020594,76.609550
95.412674,-9400.615463,-148.041188,0.000000
95.413001,-9548.656652,0.000000,76.609550
95.413327,-9474.636058,518.144159,153.219100
95.413653,-9548.656652,0.000000,0.000000
95.413980,-9622.677246,370.102971,0.000000
95.414306,-9400.615463,-148.041188,0.000000
95.414632,-9474.636058,0.000000,536.266849
95.414959,-9474.636058,0.000000,0.000000
95.415285,-9474.636058,0.000000,153.219100
95.415612,-9400.615463,0.000000,0.000000
95.415938,-9252.574275,0.000000,306.438199
95.416264,-9474.636058,444.123565,229.828649
95.416591,-9474.636058,222.061783,76.609550
95.416917,-9400.615463,0.000000,153.219100
95.417243,-9326.594869,296.082377,76.609550
95.417570,-9474.636058,222.061783,306.438199
95.417896,-9474.636058,222.061783,229.828649
95.418223,-9400.615463,-74.020594,306.438199
95.418549,-9474.636058,74.020594,229.828649
95.418875,-9178.553681,74.020594,153.219100
95.419202,-9474.636058,370.102971,76.609550
95.419528,-9252.574275,74.020594,-459.657299
95.419855,-9474.636058,222.061783,0.000000
95.420181,-9474.636058,296.082377,0.000000
95.420507,-8956.491898,444.123565,0.000000
95.420834,-9474.636058,0.000000,383.047749
95.421160,-9400.615463,-148.041188,76.609550
95.421486,-9326.594869,0.000000,459.657299
95.421813,-9474.636058,74.020594,229.828649
95.422139,-9326.594869,222.061783,0.000000
95.422466,-9474.636058,222.061783,-153.219100
95.422792,-9474.636058,0.000000,229.828649
95.423118,-9474.636058,74.020594,0.000000
95.423445,-9252.574275,222.061783,-76.609550
95.423771,-9474.636058,0.000000,229.828649
95.424097,-9252.574275,0.000000,153.219100
95.424424,-9474.636058,74.020594,76.609550
95.424750,-9474.636058,0.000000,229.828649
95.425077,-9400.615463,148.041188,76.609550
95.425403,-9474.636058,0.000000,229.828649
95.425729,-9474.636058,74.020594,229.828649
95.426056,-9474.636058,0.000000,0.000000
95.426382,-9474.636058,74.020594,76.609550
95.426708,-9474.636058,222.061783,-153.219100
95.427035,-9326.594869,0.000000,0.000000
95.427361,-9474.636058,0.000000,0.000000
95.427688,-8956.491898,0.000000,153.219100
95.428014,-9474.636058,0.000000,306.438199
95.428340,-9474.636058,0.000000,536.266849
95.428667,-9474.636058,74.020594,306.438199
95.428993,-9474.636058,0.000000,229.828649
95.429319,-9474.636058,444.123565,76.609550
95.429646,-9400.615463,222.061783,229.828649
95.429972,-9178.553681,0.000000,153.219100
95.430299,-9474.636058,0.000000,0.000000
95.430625,-9178.553681,0.000000,153.219100
95.430951,-9474.636058,74.020594,-153.219100
95.431278,-9622.677246,0.000000,383.047749
95.431604,-9474.636058,222.061783,0.000000
95.431931,-9474.636058,74.020594,0.000000
95.432257,-9622.677246,148.041188,229.828649
95.432583,-9474.636058,222.061783,76.609550
95.432910,-9474.636058,0.000000,0.000000
95.433236,-9400.615463,518.144159,459.657299
95.433562,-9326.594869,222.061783,-76.609550
95.433889,-9252.574275,74.020594,0.000000
95.434215,-9474.636058,0.000000,306.438199
95.434542,-9326.594869,0.000000,153.219100
95.434868,-9696.697840,74.020594,0.000000
95.435194,-9474.636058,0.000000,229.828649
95.435521,-9548.656652,74.020594,0.000000
95.435847,-9326.594869,0.000000,229.828649
95.436173,-9252.574275,0.000000,229.828649
95.436500,-9548.656652,148.041188,306.438199
95.436826,-9474.636058,0.000000,229.828649
95.437153,-9326.594869,0.000000,0.000000
95.437479,-9252.574275,-222.061783,153.219100
95.437805,-9474.636058,74.020594,-229.828649
95.438132,-9474.636058,148.041188,76.609550
95.438458,-9326.594869,0.000000,0.000000
95.438784,-9474.636058,0.000000,76.609550
95.439111,-9326.594869,0.000000,0.000000
95.439437,-9622.677246,148.041188,0.000000
95.439764,-9326.594869,0.000000,383.047749
95.440090,-9400.615463,0.000000,229.828649
95.440416,-9474.636058,0.000000,-306.438199
95.440743,-9252.574275,0.000000,0.000000
95.441069,-9548.656652,0.000000,153.219100
95.441395,-9400.615463,0.000000,76.609550
95.441722,-9178.553681,444.123565,306.438199
95.442048,-9548.656652,0.000000,76.609550
95.442375,-9474.636058,-74.020594,0.000000
95.442701,-9474.636058,74.020594,0.000000
95.443027,-9400.615463,0.000000,306.438199
95.443354,-9474.636058,148.041188,76.609550
95.443680,-9474.636058,0.000000,306.438199
95.444007,-9400.615463,0.000000,76.609550
95.444333,-9474.636058,0.000000,0.000000
95.444659,-9622.677246,296.082377,0.000000
95.444986,-9696.697840,296.082377,0.000000
95.445312,-9474.636058,74.020594,0.000000
95.445638,-9326.594869,74.020594,0.000000
95.445965,-9252.574275,74.020594,459.657299
95.446291,-9400.615463,148.041188,0.000000
95.446618,-9474.636058,148.041188,76.609550
95.446944,-9326.594869,0.000000,229.828649
95.447270,-9474.636058,148.041188,229.828649
95.447597,-9326.594869,370.102971,153.219100
95.447923,-9474.636058,148.041188,306.438199
95.448249,-9474.636058,74.020594,76.609550
95.448576,-9474.636058,370.102971,0.000000
95.448902,-9178.553681,74.020594,-76.609550
95.449229,-9326.594869,148.041188,0.000000
95.449555,-9400.615463,0.000000,153.219100
95.449881,-9400.615463,0.000000,306.438199
95.450208,-9326.594869,148.041188,153.219100
95.450534,-9400.615463,0.000000,459.657299
95.450860,-9622.677246,74.020594,0.000000
95.451187,-9474.636058,74.020594,0.000000
95.451513,-9474.636058,222.061783,0.000000
95.451840,-9474.636058,0.000000,76.609550
95.452166,-9474.636058,0.000000,229.828649
95.452492,-9474.636058,74.020594,0.000000
95.452819,-9548.656652,0.000000,229.828649
95.453145,-9400.615463,0.000000,536.266849
95.453471,-9400.615463,0.000000,459.657299
95.453798,-9474.636058,0.000000,0.000000
95.454124,-9474.636058,0.000000,383.047749
95.454451,-9326.594869,222.061783,0.000000
95.454777,-9474.636058,222.061783,306.438199
95.455103,-9474.636058,222.061783,0.000000
95.455430,-9252.574275,0.000000,0.000000
95.455756,-9252.574275,0.000000,0.000000
95.456082,-9548.656652,296.082377,0.000000
95.456409,-9474.636058,74.020594,459.657299
95.456735,-9474.636058,0.000000,229.828649
95.457062,-9400.615463,222.061783,0.000000
95.457388,-9030.512492,0.000000,0.000000
95.457714,-9326.594869,0.000000,0.000000
95.458041,-9474.636058,74.020594,0.000000
95.458367,-9474.636058,0.000000,0.000000
95.458693,-9622.677246,296.082377,-229.828649
95.459020,-9104.533087,74.020594,-306.438199
95.459346,-9178.553681,0.000000,0.000000
95.459673,-9548.656652,0.000000,0.000000
95.459999,-9474.636058,0.000000,76.609550
95.460325,-9770.718434,148.041188,536.266849
95.460652,-9474.636058,-148.041188,153.219100
95.460978,-9252.574275,-74.020594,76.609550
95.461305,-9622.677246,74.020594,0.000000
95.461631,-9104.533087,0.000000,0.000000
95.461957,-9474.636058,74.020594,153.219100
95.462284,-9252.574275,296.082377,0.000000
95.462610,-9474.636058,0.000000,153.219100
95.462936,-9178.553681,222.061783,0.000000
95.463263,-9474.636058,74.020594,0.000000
95.463589,-9104.533087,296.082377,306.438199
95.463916,-9400.615463,0.000000,76.609550
95.464242,-9178.553681,0.000000,76.609550
95.464568,-9030.512492,296.082377,383.047749
95.464895,-9474.636058,74.020594,306.438199
95.465221,-9474.636058,148.041188,229.828649
95.465547,-9326.594869,74.020594,0.000000
95.465874,-9622.677246,296.082377,0.000000
95.466200,-9474.636058,0.000000,306.438199
95.466527,-9548.656652,222.061783,306.438199
95.466853,-9400.615463,222.061783,0.000000
95.467179,-9252.574275,0.000000,153.219100
95.467506,-9474.636058,0.000000,229.828649
95.467832,-9548.656652,444.123565,-76.609550
95.468158,-9400.615463,0.000000,153.219100
95.468485,-9474.636058,148.041188,383.047749
95.468811,-9622.677246,222.061783,306.438199
95.469138,-9400.615463,0.000000,0.000000
95.469464,-9474.636058,0.000000,76.609550
95.469790,-9474.636058,0.000000,0.000000
95.470117,-9548.656652,74.020594,0.000000
95.470443,-9770.718434,0.000000,0.000000
95.470769,-9252.574275,0.000000,0.000000
95.471096,-9474.636058,0.000000,0.000000
95.471422,-9474.636058,148.041188,76.609550
95.471749,-9474.636058,0.000000,306.438199
95.472075,-9474.636058,0.000000,229.828649
95.472401,-9400.615463,74.020594,153.219100
95.472728,-9474.636058,0.000000,153.219100
95.473054,-9030.512492,148.041188,0.000000
95.473380,-9474.636058,0.000000,536.266849
95.473707,-9474.636058,0.000000,536.266849
95.474033,-9622.677246,0.000000,153.219100
95.474360,-9474.636058,0.000000,0.000000
95.474686,-9474.636058,0.000000,0.000000
95.475012,-9474.636058,0.000000,76.609550
95.475339,-9252.574275,148.041188,76.609550
95.475665,-9474.636058,296.082377,0.000000
95.475991,-9548.656652,74.020594,0.000000
95.476318,-9622.677246,296.082377,76.609550
95.476644,-9474.636058,0.000000,0.000000
95.476971,-9400.615463,148.041188,0.000000
95.477297,-9326.594869,518.144159,-766.095498
95.477623,-9400.615463,148.041188,0.000000
95.477950,-9474.636058,148.041188,229.828649
95.478276,-9474.636058,74.020594,76.609550
95.478602,-9400.615463,222.061783,383.047749
95.478929,-9252.574275,74.020594,153.219100
95.479255,-9400.615463,74.020594,76.609550
95.479582,-9474.636058,222.061783,153.219100
95.479908,-9474.636058,74.020594,306.438199
95.480234,-9326.594869,0.000000,0.000000
95.480561,-9474.636058,148.041188,0.000000
95.480887,-9326.594869,0.000000,0.000000
95.481213,-9178.553681,74.020594,76.609550
95.481540,-9400.615463,0.000000,919.314598
95.481866,-9326.594869,0.000000,153.219100
95.482193,-9474.636058,0.000000,383.047749
95.482519,-9474.636058,222.061783,0.000000
95.482845,-9400.615463,148.041188,229.828649
95.483172,-9474.636058,444.123565,0.000000
95.483498,-9326.594869,0.000000,229.828649
95.483824,-9474.636058,148.041188,0.000000
95.484151,-9474.636058,0.000000,76.609550
95.484477,-9326.594869,444.123565,153.219100
95.484804,-9400.615463,296.082377,0.000000
95.485130,-9474.636058,0.000000,229.828649
95.485456,-9326.594869,74.020594,0.000000
95.485783,-8882.471304,370.102971,153.219100
95.486109,-9326.594869,0.000000,76.609550
95.486435,-9474.636058,0.000000,306.438199
95.486762,-9474.636058,0.000000,153.219100
95.487088,-9400.615463,222.061783,0.000000
95.487415,-9474.636058,296.082377,306.438199
95.487741,-9770.718434,222.061783,0.000000
95.488067,-9548.656652,0.000000,76.609550
95.488394,-9252.574275,0.000000,306.438199
95.488720,-9030.512492,-296.082377,76.609550
95.489046,-9400.615463,0.000000,76.609550
95.489373,-9474.636058,0.000000,0.000000
95.489699,-9918.759623,222.061783,0.000000
95.490026,-9548.656652,0.000000,0.000000
95.490352,-9326.594869,0.000000,306.438199
95.490678,-9326.594869,0.000000,229.828649
95.491005,-9622.677246,74.020594,153.219100
95.491331,-9474.636058,74.020594,229.828649
95.491657,-9770.718434,222.061783,153.219100
95.491984,-9474.636058,0.000000,306.438199
95.492310,-9474.636058,148.041188,0.000000
95.492637,-9252.574275,0.000000,76.609550
95.492963,-9178.553681,74.020594,-306.438199
95.493289,-9178.553681,74.020594,153.219100
95.493616,-9326.594869,74.020594,0.000000
95.493942,-9474.636058,296.082377,-229.828649
95.494268,-9548.656652,296.082377,-306.438199
95.494595,-9474.636058,222.061783,76.609550
95.494921,-9474.636058,222.061783,76.609550
95.495248,-9474.636058,222.061783,153.219100
95.495574,-9474.636058,296.082377,229.828649
95.495900,-9400.615463,0.000000,229.828649
95.496227,-9400.615463,148.041188,76.609550
95.496553,-9104.533087,222.061783,-306.438199
95.496879,-9326.594869,74.020594,76.609550
95.497206,-9326.594869,296.082377,0.000000
95.497532,-9474.636058,370.102971,306.438199
95.497859,-9400.615463,0.000000,-153.219100
95.498185,-9400.615463,0.000000,153.219100
95.498511,-9474.636058,444.123565,0.000000
95.498838,-9400.615463,0.000000,229.828649
95.499164,-9474.636058,0.000000,536.266849
95.499491,-9400.615463,0.000000,306.438199
95.499817,-9400.615463,0.000000,306.438199
95.500143,-9474.636058,0.000000,153.219100
95.500470,-9622.677246,74.020594,0.000000
95.500796,-9400.615463,-74.020594,153.219100
95.501122,-9178.553681,0.000000,0.000000
95.501449,-9400.615463,296.082377,0.000000
95.501775,-9474.636058,0.000000,306.438199
95.502102,-9400.615463,0.000000,0.000000
95.502428,-9474.636058,0.000000,153.219100
95.502754,-9548.656652,74.020594,383.047749
95.503081,-9400.615463,0.000000,229.828649
95.503407,-9400.615463,0.000000,0.000000
95.503733,-9548.656652,0.000000,153.219100
95.504060,-9104.533087,0.000000,0.000000
95.504386,-9622.677246,0.000000,0.000000
95.504713,-9252.574275,0.000000,0.000000
95.505039,-9548.656652,0.000000,0.000000
95.505365,-9548.656652,0.000000,0.000000
95.505692,-9474.636058,0.000000,0.000000
95.506018,-9474.636058,0.000000,153.219100
95.506344,-9400.615463,0.000000,153.219100
95.506671,-9474.636058,148.041188,306.438199
95.506997,-9622.677246,74.020594,153.219100
95.507324,-9548.656652,74.020594,229.828649
95.507650,-9548.656652,74.020594,0.000000
95.507976,-9474.636058,74.020594,153.219100
95.508303,-9400.615463,296.082377,153.219100
95.508629,-9252.574275,0.000000,153.219100
95.508955,-9252.574275,148.041188,153.219100
95.509282,-9252.574275,74.020594,-153.219100
95.509608,-9474.636058,74.020594,0.000000
95.509935,-9474.636058,148.041188,306.438199
95.510261,-9474.636058,0.000000,229.828649
95.510587,-9474.636058,296.082377,459.657299
95.510914,-9548.656652,222.061783,383.047749
95.511240,-9252.574275,0.000000,383.047749
95.511566,-9474.636058,74.020594,153.219100
95.511893,-9400.615463,74.020594,0.000000
95.512219,-9326.594869,74.020594,153.219100
95.512546,-9474.636058,222.061783,306.438199
95.512872,-9178.553681,148.041188,153.219100
95.513198,-9400.615463,74.020594,153.219100
95.513525,-9474.636058,370.102971,0.000000
95.513851,-9474.636058,74.020594,0.000000
95.514177,-9178.553681,74.020594,0.000000
95.514504,-9400.615463,0.000000,536.266849
95.514830,-9474.636058,0.000000,459.657299
95.515157,-9622.677246,0.000000,153.219100
95.515483,-9178.553681,0.000000,0.000000
95.515809,-9474.636058,0.000000,229.828649
95.516136,-9178.553681,-148.041188,0.000000
95.516462,-9326.594869,0.000000,383.047749
95.516788,-9400.615463,0.000000,459.657299
95.517115,-9400.615463,370.102971,0.000000
95.517441,-9474.636058,0.000000,153.219100
95.517768,-9474.636058,0.000000,0.000000
95.518094,-9474.636058,74.020594,-76.609550
95.518420,-9474.636058,0.000000,689.485948
95.518747,-9400.615463,0.000000,76.609550
95.519073,-9474.636058,0.000000,153.219100
95.519399,-9474.636058,0.000000,306.438199
95.519726,-9770.718434,148.041188,153.219100
95.520052,-9548.656652,0.000000,76.609550
95.520379,-9474.636058,74.020594,0.000000
95.520705,-9622.677246,0.000000,0.000000
95.521031,-9252.574275,0.000000,306.438199
95.521358,-9104.533087,148.041188,306.438199
95.521684,-9178.553681,0.000000,76.609550
95.522010,-9400.615463,148.041188,229.828649
95.522337,-9400.615463,148.041188,0.000000
95.522663,-8956.491898,-222.061783,0.000000
95.522990,-9474.636058,296.082377,76.609550
95.523316,-9696.697840,0.000000,229.828649
95.523642,-9548.656652,74.020594,229.828649
95.523969,-9474.636058,74.020594,153.219100
95.524295,-9474.636058,0.000000,0.000000
95.524621,-9474.636058,296.082377,153.219100
95.524948,-9622.677246,0.000000,0.000000
95.525274,-9178.553681,148.041188,0.000000
95.525601,-9178.553681,296.082377,459.657299
95.525927,-9252.574275,222.061783,-229.828649
95.526253,-9400.615463,222.061783,0.000000
95.526580,-9474.636058,0.000000,459.657299
95.526906,-9474.636058,74.020594,153.219100
95.527232,-9474.636058,0.000000,76.609550
95.527559,-9326.594869,148.041188,0.000000
95.527885,-9474.636058,296.082377,229.828649
95.528212,-9326.594869,0.000000,459.657299
95.528538,-9548.656652,74.020594,0.000000
95.528864,-9474.636058,222.061783,0.000000
95.529191,-9104.533087,148.041188,76.609550
95.529517,-9252.574275,148.041188,0.000000
95.529843,-8882.471304,148.041188,-306.438199
95.530170,-9474.636058,148.041188,76.609550
95.530496,-9474.636058,0.000000,0.000000
95.530823,-9474.636058,148.041188,153.219100
95.531149,-9548.656652,0.000000,459.657299
95.531475,-9474.636058,74.020594,459.657299
95.531802,-9474.636058,74.020594,229.828649
95.532128,-9622.677246,222.061783,0.000000
95.532454,-9252.574275,0.000000,153.219100
95.532781,-9474.636058,74.020594,0.000000
95.533107,-9548.656652,0.000000,0.000000
95.533434,-9474.636058,74.020594,0.000000
95.533760,-9326.594869,0.000000,0.000000
95.534086,-9252.574275,0.000000,383.047749
95.534413,-9474.636058,0.000000,229.828649
95.534739,-9252.574275,0.000000,76.609550
95.535065,-9474.636058,222.061783,0.000000
95.535392,-9548.656652,592.164754,229.828649
95.535718,-9326.594869,0.000000,383.047749
95.536045,-9548.656652,0.000000,306.438199
95.536371,-9548.656652,296.082377,0.000000
95.536697,-9474.636058,222.061783,0.000000
95.537024,-9400.615463,148.041188,76.609550
95.537350,-9400.615463,148.041188,0.000000
95.537677,-9474.636058,0.000000,0.000000
95.538003,-9696.697840,0.000000,0.000000
95.538329,-9030.512492,148.041188,-153.219100
95.538656,-9400.615463,222.061783,0.000000
95.538982,-9400.615463,0.000000,76.609550
95.539308,-9548.656652,0.000000,306.438199
95.539635,-9400.615463,74.020594,459.657299
95.539961,-9252.574275,444.123565,0.000000
95.540288,-9400.615463,222.061783,0.000000
95.540614,-9474.636058,296.082377,-76.609550
95.540940,-9474.636058,444.123565,0.000000
95.541267,-9252.574275,148.041188,0.000000
95.541593,-9252.574275,222.061783,459.657299
95.541919,-9326.594869,148.041188,306.438199
95.542246,-9548.656652,74.020594,0.000000
95.542572,-9548.656652,222.061783,383.047749
95.542899,-9252.574275,222.061783,0.000000
95.543225,-9474.636058,74.020594,0.000000
95.543551,-9326.594869,74.020594,306.438199
95.543878,-9400.615463,148.041188,459.657299
95.544204,-9252.574275,222.061783,0.000000
95.544530,-9474.636058,0.000000,229.828649
95.544857,-9400.615463,0.000000,76.609550
95.545183,-9400.615463,0.000000,76.609550
95.545510,-9252.574275,0.000000,306.438199
95.545836,-9400.615463,0.000000,229.828649
95.546162,-9252.574275,0.000000,76.609550
95.546489,-9326.594869,-370.102971,229.828649
95.546815,-9474.636058,-370.102971,612.876398
95.547141,-9400.615463,0.000000,-383.047749
95.547468,-9178.553681,0.000000,229.828649
95.547794,-9400.615463,0.000000,76.609550
95.548121,-9326.594869,0.000000,536.266849
95.548447,-9548.656652,0.000000,76.609550
95.548773,-9474.636058,0.000000,153.219100
95.549100,-9622.677246,0.000000,153.219100
95.549426,-9474.636058,-370.102971,229.828649
95.549752,-9474.636058,444.123565,229.828649
95.550079,-9400.615463,74.020594,153.219100
95.550405,-9326.594869,0.000000,383.047749
95.550732,-9548.656652,0.000000,0.000000
95.551058,-9178.553681,0.000000,153.219100
95.551384,-9474.636058,0.000000,229.828649
95.551711,-9400.615463,148.041188,0.000000
95.552037,-9400.615463,-148.041188,0.000000
95.552363,-9474.636058,148.041188,0.000000
95.552690,-9326.594869,74.020594,76.609550
95.553016,-9326.594869,0.000000,153.219100
95.553343,-9326.594869,222.061783,0.000000
95.553669,-9400.615463,222.061783,0.000000
95.553995,-9104.533087,0.000000,153.219100
95.554322,-9252.574275,222.061783,0.000000
95.554648,-9548.656652,444.123565,229.828649
95.554974,-9400.615463,370.102971,76.609550
95.555301,-9474.636058,296.082377,0.000000
95.555627,-9474.636058,74.020594,153.219100
95.555954,-9400.615463,-74.020594,0.000000
95.556280,-9326.594869,148.041188,76.609550
95.556606,-9474.636058,370.102971,0.000000
95.556933,-9326.594869,74.020594,76.609550
95.557259,-9474.636058,222.061783,0.000000
95.557586,-9400.615463,0.000000,306.438199
95.557912,-9400.615463,148.041188,-306.438199
95.558238,-9252.574275,74.020594,0.000000
95.558565,-9326.594869,222.061783,153.219100
95.558891,-9326.594869,0.000000,0.000000
95.559217,-9474.636058,0.000000,-153.219100
95.559544,-9326.594869,222.061783,-689.485948
95.559870,-9474.636058,0.000000,153.219100
95.560197,-9548.656652,222.061783,306.438199
95.560523,-9474.636058,-74.020594,153.219100
95.560849,-9474.636058,148.041188,76.609550
95.561176,-9030.512492,0.000000,306.438199
95.561502,-9252.574275,0.000000,153.219100
95.561829,-9474.636058,0.000000,306.438199
95.562155,-9622.677246,-148.041188,-229.828649
95.562481,-9326.594869,0.000000,536.266849
95.562808,-9474.636058,-296.082377,0.000000
95.563134,-9326.594869,0.000000,76.609550
95.563461,-9474.636058,-74.020594,306.438199
95.563787,-9474.636058,0.000000,536.266849
95.564113,-9474.636058,0.000000,153.219100
95.564440,-9474.636058,0.000000,0.000000
95.564766,-9548.656652,0.000000,0.000000
95.565093,-9474.636058,0.000000,306.438199
95.565419,-9178.553681,74.020594,153.219100
95.565745,-9696.697840,0.000000,76.609550
95.566072,-9400.615463,-370.102971,459.657299
95.566398,-9252.574275,74.020594,0.000000
95.566725,-9252.574275,0.000000,459.657299
95.567051,-9548.656652,0.000000,229.828649
95.567377,-9474.636058,148.041188,76.609550
95.567704,-9770.718434,74.020594,76.609550
95.568030,-9622.677246,296.082377,0.000000
95.568357,-9474.636058,0.000000,153.219100
95.568683,-9474.636058,74.020594,459.657299
95.569009,-9474.636058,74.020594,229.828649
95.569336,-9252.574275,74.020594,229.828649
95.569662,-9770.718434,222.061783,0.000000
95.569989,-9326.594869,0.000000,153.219100
95.570315,-9474.636058,370.102971,153.219100
95.570641,-9548.656652,222.061783,76.609550
95.570968,-9548.656652,370.102971,153.219100
95.571294,-9252.574275,222.061783,0.000000
95.571621,-9474.636058,296.082377,0.000000
95.571947,-9030.512492,296.082377,0.000000
95.572273,-9326.594869,74.020594,612.876398
95.572600,-9326.594869,74.020594,306.438199
95.572926,-9252.574275,296.082377,0.000000
95.573253,-9474.636058,0.000000,76.609550
95.573579,-9474.636058,0.000000,76.609550
95.573905,-9326.594869,444.123565,383.047749
95.574232,-9400.615463,296.082377,153.219100
95.574558,-9474.636058,296.082377,0.000000
95.574885,-9252.574275,74.020594,0.000000
95.575211,-9474.636058,74.020594,0.000000
95.575537,-9400.615463,0.000000,229.828649
95.575864,-9474.636058,222.061783,-76.609550
95.576190,-9474.636058,0.000000,229.828649
95.576517,-9326.594869,0.000000,0.000000
95.576843,-9474.636058,-148.041188,153.219100
95.577169,-9474.636058,0.000000,383.047749
95.577496,-9474.636058,0.000000,153.219100
95.577822,-9622.677246,0.000000,153.219100
95.578149,-9770.718434,0.000000,459.657299
95.578475,-9474.636058,74.020594,0.000000
95.578801,-9252.574275,0.000000,153.219100
95.579128,-9400.615463,0.000000,76.609550
95.579454,-9400.615463,-148.041188,0.000000
95.579781,-9178.553681,0.000000,153.219100
95.580107,-9326.594869,0.000000,0.000000
95.580433,-9474.636058,0.000000,306.438199
95.580760,-9326.594869,0.000000,383.047749
95.581086,-9548.656652,0.000000,229.828649
95.581413,-9474.636058,0.000000,459.657299
95.581739,-9400.615463,0.000000,0.000000
95.582065,-9622.677246,222.061783,0.000000
95.582392,-9178.553681,370.102971,-383.047749
95.582718,-9474.636058,370.102971,-229.828649
95.583045,-9326.594869,222.061783,306.438199
95.583371,-9548.656652,148.041188,0.000000
95.583697,-9400.615463,0.000000,459.657299
95.584024,-9548.656652,74.020594,76.609550
95.584350,-9400.615463,74.020594,0.000000
95.584677,-9400.615463,0.000000,76.609550
95.585003,-9474.636058,148.041188,0.000000
95.585329,-9326.594869,222.061783,76.609550
95.585656,-9400.615463,148.041188,306.438199
95.585982,-9696.697840,370.102971,76.609550
95.586309,-9696.697840,0.000000,0.000000
95.586635,-9548.656652,148.041188,306.438199
95.586961,-9474.636058,296.082377,-76.609550
95.587288,-9252.574275,148.041188,76.609550
95.587614,-9252.574275,222.061783,229.828649
95.587940,-9326.594869,148.041188,229.828649
95.588267,-9400.615463,296.082377,0.000000
95.588593,-9400.615463,148.041188,229.828649
95.588920,-9326.594869,222.061783,229.828649
95.589246,-9326.594869,222.061783,229.828649
95.589572,-9400.615463,444.123565,383.047749
95.589899,-9400.615463,148.041188,0.000000
95.590225,-9252.574275,0.000000,76.609550
95.590552,-9474.636058,74.020594,0.000000
95.590878,-9326.594869,74.020594,0.000000
95.591204,-9622.677246,0.000000,153.219100
95.591531,-9252.574275,-148.041188,0.000000
95.591857,-9400.615463,0.000000,306.438199
95.592184,-9474.636058,0.000000,459.657299
95.592510,-9178.553681,74.020594,229.828649
95.592836,-9474.636058,0.000000,0.000000
95.593163,-9326.594869,0.000000,459.657299
95.593489,-9696.697840,296.082377,0.000000
95.593816,-9696.697840,148.041188,0.000000
95.594142,-9548.656652,74.020594,0.000000
95.594468,-9326.594869,0.000000,0.000000
95.594795,-9474.636058,0.000000,153.219100
95.595121,-9844.739029,0.000000,383.047749
95.595448,-9622.677246,0.000000,0.000000
95.595774,-9474.636058,-148.041188,153.219100
95.596100,-9326.594869,0.000000,383.047749
95.596427,-9474.636058,74.020594,0.000000
95.596753,-9474.636058,0.000000,0.000000
95.597080,-9178.553681,0.000000,306.438199
95.597406,-9474.636058,148.041188,0.000000
95.597732,-9474.636058,74.020594,229.828649
95.598059,-9252.574275,148.041188,229.828649
95.598385,-9474.636058,222.061783,229.828649
95.598712,-9474.636058,0.000000,306.438199
95.599038,-9474.636058,0.000000,76.609550
95.599364,-9474.636058,222.061783,0.000000
95.599691,-9548.656652,148.041188,0.000000
95.600017,-9474.636058,222.061783,-153.219100
95.600344,-9474.636058,296.082377,0.000000
95.600670,-9548.656652,0.000000,0.000000
95.600996,-9178.553681,222.061783,306.438199
95.601323,-9474.636058,222.061783,0.000000
95.601649,-9400.615463,148.041188,0.000000
95.601976,-9252.574275,370.102971,0.000000
95.602302,-9104.533087,148.041188,76.609550
95.602628,-9548.656652,74.020594,306.438199
95.602955,-9326.594869,444.123565,0.000000
95.603281,-9400.615463,74.020594,76.609550
95.603608,-9474.636058,444.123565,153.219100
95.603934,-9474.636058,222.061783,0.000000
95.604260,-9474.636058,370.102971,-306.438199
95.604587,-9252.574275,74.020594,-76.609550
95.604913,-9400.615463,222.061783,0.000000
95.605240,-9474.636058,222.061783,383.047749
95.605566,-9622.677246,370.102971,229.828649
95.605892,-9474.636058,0.000000,229.828649
95.606219,-9474.636058,0.000000,76.609550
95.606545,-8882.471304,0.000000,0.000000
95.606872,-9400.615463,74.020594,76.609550
95.607198,-9326.594869,148.041188,153.219100
95.607524,-9400.615463,0.000000,229.828649
95.607851,-9548.656652,222.061783,153.219100
95.608177,-9474.636058,222.061783,153.219100
95.608504,-9474.636058,0.000000,76.609550
95.608830,-9548.656652,0.000000,76.609550
95.609156,-9252.574275,0.000000,153.219100
95.609483,-9326.594869,-370.102971,306.438199
95.609809,-9548.656652,0.000000,0.000000
95.610136,-9474.636058,0.000000,76.609550
95.610462,-9548.656652,0.000000,76.609550
95.610788,-9178.553681,518.144159,229.828649
95.611115,-9474.636058,0.000000,383.047749
95.611441,-9474.636058,0.000000,153.219100
95.611768,-9400.615463,0.000000,76.609550
95.612094,-9474.636058,148.041188,0.000000
95.612420,-9548.656652,74.020594,229.828649
95.612747,-9696.697840,0.000000,0.000000
95.613073,-9548.656652,0.000000,0.000000
95.613400,-9400.615463,0.000000,0.000000
95.613726,-9104.533087,0.000000,229.828649
95.614052,-9400.615463,0.000000,229.828649
95.614379,-9178.553681,370.102971,0.000000
95.614705,-9252.574275,148.041188,76.609550
95.615032,-9400.615463,148.041188,229.828649
95.615358,-9326.594869,74.020594,76.609550
95.615684,-9252.574275,222.061783,0.000000
95.616011,-9178.553681,148.041188,0.000000
95.616337,-9252.574275,222.061783,536.266849
95.616663,-9474.636058,370.102971,0.000000
95.616990,-9474.636058,444.123565,76.609550
95.617316,-9474.636058,222.061783,0.000000
95.617643,-9326.594869,370.102971,0.000000
95.617969,-9252.574275,0.000000,0.000000
95.618295,-9252.574275,444.123565,0.000000
95.618622,-9178.553681,296.082377,0.000000
95.618948,-9178.553681,222.061783,0.000000
95.619275,-9326.594869,444.123565,306.438199
95.619601,-9400.615463,0.000000,383.047749
95.619927,-9474.636058,148.041188,229.828649
95.620254,-9474.636058,222.061783,0.000000
95.620580,-9326.594869,0.000000,229.828649
95.620907,-9178.553681,0.000000,536.266849
95.621233,-9474.636058,74.020594,76.609550
95.621559,-9696.697840,74.020594,76.609550
95.621886,-9400.615463,0.000000,0.000000
95.622212,-9474.636058,0.000000,-153.219100
95.622539,-9474.636058,222.061783,-153.219100
95.622865,-9474.636058,148.041188,0.000000
95.623191,-9548.656652,0.000000,153.219100
95.623518,-9474.636058,0.000000,153.219100
95.623844,-9474.636058,0.000000,0.000000
95.624171,-9326.594869,0.000000,306.438199
95.624497,-9400.615463,74.020594,0.000000
95.624823,-9400.615463,0.000000,76.609550
95.625150,-9400.615463,0.000000,153.219100
95.625476,-9474.636058,0.000000,-229.828649
95.625803,-9326.594869,0.000000,0.000000
95.626129,-9178.553681,0.000000,0.000000
95.626455,-9400.615463,296.082377,229.828649
95.626782,-9474.636058,-222.061783,306.438199
95.627108,-9474.636058,0.000000,0.000000
95.627435,-9474.636058,0.000000,459.657299
95.627761,-8882.471304,-222.061783,383.047749
95.628087,-9474.636058,0.000000,229.828649
95.628414,-9548.656652,222.061783,76.609550
95.628740,-9696.697840,0.000000,0.000000
95.629067,-9474.636058,0.000000,0.000000
95.629393,-9252.574275,148.041188,0.000000
95.629719,-9178.553681,148.041188,0.000000
95.630046,-9400.615463,74.020594,0.000000
95.630372,-9474.636058,148.041188,153.219100
95.630699,-9104.533087,0.000000,76.609550
95.631025,-9178.553681,148.041188,76.609550
95.631351,-9474.636058,148.041188,536.266849
95.631678,-9326.594869,74.020594,229.828649
95.632004,-9474.636058,296.082377,383.047749
95.632331,-9326.594869,148.041188,0.000000
95.632657,-9474.636058,148.041188,0.000000
95.632983,-9474.636058,0.000000,229.828649
95.633310,-9474.636058,444.123565,0.000000
95.633636,-9400.615463,74.020594,306.438199
95.633963,-9696.697840,148.041188,76.609550
95.634289,-9400.615463,74.020594,153.219100
95.634615,-9474.636058,296.082377,153.219100
95.634942,-9178.553681,370.102971,-229.828649
95.635268,-9474.636058,222.061783,0.000000
95.635595,-9770.718434,74.020594,-153.219100
95.635921,-9474.636058,0.000000,229.828649
95.636247,-9104.533087,222.061783,536.266849
95.636574,-9252.574275,148.041188,0.000000
95.636900,-9548.656652,222.061783,0.000000
95.637227,-9474.636058,222.061783,153.219100
95.637553,-9252.574275,0.000000,0.000000
95.637879,-9400.615463,148.041188,153.219100
95.638206,-9474.636058,0.000000,229.828649
95.638532,-9252.574275,-148.041188,0.000000
95.638859,-9474.636058,0.000000,153.219100
95.639185,-9622.677246,0.000000,306.438199
95.639511,-9474.636058,0.000000,0.000000
95.639838,-9622.677246,0.000000,383.047749
95.640164,-9474.636058,0.000000,459.657299
95.640491,-9400.615463,0.000000,459.657299
95.640817,-9400.615463,0.000000,229.828649
95.641143,-9474.636058,0.000000,153.219100
95.641470,-9474.636058,-74.020594,0.000000
95.641796,-9474.636058,0.000000,0.000000
95.642123,-9104.533087,0.000000,459.657299
95.642449,-9548.656652,222.061783,0.000000
95.642775,-9474.636058,0.000000,0.000000
95.643102,-9400.615463,74.020594,0.000000
95.643428,-9548.656652,0.000000,0.000000
95.643755,-9400.615463,0.000000,229.828649
95.644081,-9474.636058,296.082377,0.000000
95.644407,-9474.636058,0.000000,153.219100
95.644734,-9474.636058,296.082377,229.828649
95.645060,-9400.615463,370.102971,0.000000
95.645386,-9474.636058,0.000000,76.609550
95.645713,-9178.553681,296.082377,0.000000
95.646039,-9474.636058,74.020594,0.000000
95.646366,-9400.615463,0.000000,0.000000
95.646692,-9548.656652,148.041188,0.000000
95.647018,-9400.615463,74.020594,76.609550
95.647345,-9622.677246,370.102971,76.609550
95.647671,-9400.615463,222.061783,536.266849
95.647998,-9622.677246,370.102971,76.609550
95.648324,-9474.636058,0.000000,229.828649
95.648650,-9178.553681,148.041188,76.609550
95.648977,-9400.615463,666.185348,-383.047749
95.649303,-9400.615463,74.020594,0.000000
95.649630,-9178.553681,0.000000,76.609550
95.649956,-9252.574275,370.102971,153.219100
95.650282,-9326.594869,0.000000,306.438199
95.650609,-9030.512492,296.082377,-229.828649
95.650935,-9474.636058,296.082377,153.219100
95.651262,-9326.594869,0.000000,612.876398
95.651588,-9178.553681,148.041188,0.000000
95.651914,-9326.594869,222.061783,306.438199
95.652241,-9326.594869,74.020594,0.000000
95.652567,-9474.636058,444.123565,-306.438199
95.652894,-9400.615463,0.000000,306.438199
95.653220,-9252.574275,148.041188,0.000000
95.653546,-9400.615463,0.000000,229.828649
95.653873,-9622.677246,0.000000,76.609550
95.654199,-9326.594869,0.000000,76.609550
95.654526,-9400.615463,0.000000,0.000000
95.654852,-9474.636058,-148.041188,153.219100
95.655178,-9474.636058,-74.020594,153.219100
95.655505,-9400.615463,0.000000,0.000000
95.655831,-9474.636058,148.041188,383.047749
95.656158,-9178.553681,0.000000,383.047749
95.656484,-9622.677246,0.000000,0.000000
95.656810,-9178.553681,-296.082377,-229.828649
95.657137,-9252.574275,0.000000,153.219100
95.657463,-9474.636058,-370.102971,459.657299
95.657790,-9474.636058,0.000000,0.000000
95.658116,-9474.636058,0.000000,306.438199
95.658442,-9400.615463,222.061783,229.828649
95.658769,-9474.636058,0.000000,229.828649
95.659095,-9326.594869,-370.102971,0.000000
95.659422,-9474.636058,0.000000,536.266849
95.659748,-9178.553681,0.000000,153.219100
95.660074,-9252.574275,74.020594,76.609550
95.660401,-9474.636058,0.000000,229.828649
95.660727,-9326.594869,0.000000,0.000000
95.661054,-9474.636058,296.082377,0.000000
95.661380,-9622.677246,0.000000,0.000000
95.661706,-9326.594869,518.144159,0.000000
95.662033,-9326.594869,0.000000,76.609550
95.662359,-9474.636058,0.000000,153.219100
95.662686,-9326.594869,74.020594,0.000000
95.663012,-9474.636058,148.041188,0.000000
95.663338,-9400.615463,444.123565,229.828649
95.663665,-9400.615463,0.000000,383.047749
95.663991,-9326.594869,0.000000,229.828649
95.664318,-9178.553681,74.020594,0.000000
95.664644,-9178.553681,222.061783,-459.657299
95.664970,-9252.574275,74.020594,0.000000
95.665297,-9326.594869,148.041188,0.000000
95.665623,-9178.553681,0.000000,0.000000
95.665950,-9252.574275,222.061783,0.000000
95.666276,-9326.594869,0.000000,-153.219100
95.666603,-9252.574275,148.041188,153.219100
95.666929,-9252.574275,222.061783,0.000000
95.667255,-9400.615463,222.061783,76.609550
95.667582,-9326.594869,0.000000,306.438199
95.667908,-9474.636058,148.041188,76.609550
95.668235,-9400.615463,74.020594,153.219100
95.668561,-9326.594869,148.041188,153.219100
95.668887,-9474.636058,74.020594,459.657299
95.669214,-9474.636058,0.000000,0.000000
95.669540,-9622.677246,0.000000,-153.219100
95.669867,-9400.615463,74.020594,76.609550
95.670193,-9252.574275,0.000000,229.828649
95.670519,-9252.574275,-296.082377,459.657299
95.670846,-9474.636058,0.000000,0.000000
95.671172,-9548.656652,148.041188,153.219100
95.671499,-9474.636058,74.020594,0.000000
95.671825,-9252.574275,0.000000,-536.266849
95.672151,-9548.656652,0.000000,0.000000
95.672478,-9548.656652,0.000000,76.609550
95.672804,-9474.636058,0.000000,229.828649
95.673131,-9400.615463,-148.041188,306.438199
95.673457,-9474.636058,148.041188,76.609550
95.673783,-9474.636058,0.000000,0.000000
95.674110,-9474.636058,0.000000,-153.219100
95.674436,-9622.677246,0.000000,229.828649
95.674763,-9400.615463,-296.082377,229.828649
95.675089,-9400.615463,74.020594,0.000000
95.675415,-9326.594869,0.000000,306.438199
95.675742,-9400.615463,0.000000,306.438199
95.676068,-9474.636058,74.020594,153.219100
95.676395,-9622.677246,222.061783,-229.828649
95.676721,-9474.636058,74.020594,229.828649
95.677047,-9474.636058,296.082377,153.219100
95.677374,-9252.574275,222.061783,0.000000
95.677700,-9326.594869,0.000000,0.000000
95.678027,-9252.574275,0.000000,0.000000
95.678353,-9400.615463,0.000000,153.219100
95.678679,-9326.594869,0.000000,0.000000
95.679006,-9252.574275,148.041188,153.219100
95.679332,-9474.636058,296.082377,0.000000
95.679659,-9474.636058,296.082377,0.000000
95.679985,-9474.636058,148.041188,229.828649
95.680311,-9474.636058,666.185348,0.000000
95.680638,-9178.553681,296.082377,0.000000
95.680964,-9252.574275,518.144159,76.609550
95.681291,-9548.656652,296.082377,229.828649
95.681617,-9474.636058,296.082377,76.609550
95.681943,-9696.697840,222.061783,76.609550
95.682270,-9252.574275,0.000000,0.000000
95.682596,-9474.636058,0.000000,0.000000
95.682923,-9400.615463,74.020594,0.000000
95.683249,-9400.615463,0.000000,306.438199
95.683575,-9252.574275,0.000000,76.609550
95.683902,-9474.636058,0.000000,229.828649
95.684228,-9474.636058,0.000000,229.828649
95.684555,-9770.718434,74.020594,612.876398
95.684881,-9474.636058,0.000000,76.609550
95.685208,-9474.636058,0.000000,383.047749
95.685534,-9400.615463,74.020594,0.000000
95.685860,-9400.615463,74.020594,153.219100
95.686187,-9474.636058,0.000000,229.828649
95.686513,-9400.615463,0.000000,0.000000
95.686840,-9326.594869,-296.082377,0.000000
95.687166,-9474.636058,0.000000,76.609550
95.687492,-9474.636058,0.000000,-153.219100
95.687819,-9474.636058,0.000000,153.219100
95.688145,-9326.594869,-222.061783,306.438199
95.688472,-9474.636058,0.000000,383.047749
95.688798,-9474.636058,-148.041188,689.485948
95.689124,-9474.636058,148.041188,76.609550
95.689451,-9252.574275,-148.041188,459.657299
95.689777,-9474.636058,74.020594,76.609550
95.690104,-9696.697840,74.020594,153.219100
95.690430,-9474.636058,0.000000,0.000000
95.690756,-9252.574275,0.000000,-229.828649
95.691083,-9474.636058,0.000000,0.000000
95.691409,-9696.697840,370.102971,0.000000
95.691736,-9178.553681,-222.061783,229.828649
95.692062,-9400.615463,74.020594,76.609550
95.692388,-9326.594869,74.020594,229.828649
95.692715,-9326.594869,0.000000,76.609550
95.693041,-9252.574275,222.061783,-536.266849
95.693368,-9326.594869,74.020594,229.828649
95.693694,-9548.656652,148.041188,153.219100
95.694020,-9474.636058,296.082377,76.609550
95.694347,-9400.615463,0.000000,229.828649
95.694673,-9400.615463,296.082377,306.438199
95.695000,-9178.553681,296.082377,0.000000
95.695326,-9178.553681,0.000000,153.219100
95.695652,-9178.553681,222.061783,0.000000
95.695979,-9696.697840,74.020594,459.657299
95.696305,-9548.656652,74.020594,76.609550
95.696632,-9474.636058,444.123565,0.000000
95.696958,-9548.656652,222.061783,0.000000
95.697284,-9104.533087,0.000000,459.657299
95.697611,-9474.636058,296.082377,383.047749
95.697937,-9474.636058,74.020594,229.828649
95.698264,-9178.553681,0.000000,0.000000
95.698590,-9548.656652,148.041188,0.000000
95.698916,-9400.615463,148.041188,306.438199
95.699243,-9622.677246,0.000000,0.000000
95.699569,-9400.615463,0.000000,0.000000
95.699896,-9474.636058,74.020594,0.000000
95.700222,-9400.615463,148.041188,0.000000
95.700548,-9400.615463,0.000000,0.000000
95.700875,-9400.615463,74.020594,0.000000
95.701201,-9400.615463,74.020594,229.828649
95.701528,-9548.656652,222.061783,536.266849
95.701854,-9474.636058,0.000000,306.438199
95.702181,-9252.574275,0.000000,306.438199
95.702507,-9400.615463,0.000000,0.000000
95.702833,-9326.594869,74.020594,0.000000
95.703160,-9178.553681,0.000000,0.000000
95.703486,-9474.636058,74.020594,0.000000
95.703813,-9474.636058,0.000000,0.000000
95.704139,-9400.615463,74.020594,0.000000
95.704465,-9548.656652,222.061783,229.828649
95.704792,-9474.636058,0.000000,76.609550
95.705118,-9400.615463,0.000000,0.000000
95.705445,-9548.656652,0.000000,229.828649
95.705771,-9474.636058,74.020594,153.219100
95.706097,-9400.615463,0.000000,229.828649
95.706424,-9474.636058,74.020594,153.219100
95.706750,-9400.615463,0.000000,306.438199
95.707077,-9474.636058,222.061783,306.438199
95.707403,-9178.553681,444.123565,0.000000
95.707729,-9474.636058,222.061783,0.000000
95.708056,-9252.574275,74.020594,153.219100
95.708382,-9400.615463,222.061783,0.000000
95.708709,-9178.553681,0.000000,536.266849
95.709035,-9400.615463,148.041188,306.438199
95.709361,-9178.553681,0.000000,153.219100
95.709688,-9474.636058,370.102971,0.000000
95.710014,-9474.636058,148.041188,459.657299
95.710341,-9326.594869,296.082377,76.609550
95.710667,-9622.677246,370.102971,76.609550
95.710993,-9326.594869,0.000000,76.609550
95.711320,-9400.615463,444.123565,0.000000
95.711646,-9326.594869,148.041188,383.047749
95.711973,-9252.574275,592.164754,0.000000
95.712299,-9252.574275,370.102971,0.000000
95.712625,-9622.677246,0.000000,76.609550
95.712952,-9326.594869,592.164754,-229.828649
95.713278,-9474.636058,222.061783,0.000000
95.713605,-9178.553681,0.000000,76.609550
95.713931,-9474.636058,74.020594,0.000000
95.714257,-9400.615463,0.000000,459.657299
95.714584,-9474.636058,296.082377,536.266849
95.714910,-9326.594869,222.061783,76.609550
95.715237,-9252.574275,296.082377,0.000000
95.715563,-9548.656652,148.041188,-229.828649
95.715889,-9326.594869,0.000000,-229.828649
95.716216,-9326.594869,0.000000,153.219100
95.716542,-9178.553681,0.000000,76.609550
95.716869,-9252.574275,74.020594,76.609550
95.717195,-9252.574275,0.000000,383.047749
95.717521,-9696.697840,0.000000,0.000000
95.717848,-9696.697840,0.000000,0.000000
95.718174,-9326.594869,-222.061783,0.000000
95.718501,-9622.677246,0.000000,76.609550
95.718827,-9622.677246,0.000000,229.828649
95.719153,-9622.677246,222.061783,229.828649
95.719480,-9326.594869,0.000000,76.609550
95.719806,-9326.594869,0.000000,0.000000
95.720133,-9252.574275,222.061783,-153.219100
95.720459,-9548.656652,74.020594,0.000000
95.720786,-9030.512492,-222.061783,153.219100
95.721112,-9252.574275,0.000000,306.438199
95.721438,-9474.636058,0.000000,76.609550
95.721765,-9696.697840,222.061783,0.000000
95.722091,-9622.677246,0.000000,76.609550
95.722418,-9474.636058,0.000000,-153.219100
95.722744,-9548.656652,370.102971,153.219100
95.723070,-9326.594869,148.041188,0.000000
95.723397,-9474.636058,222.061783,229.828649
95.723723,-9252.574275,148.041188,76.609550
95.724050,-9400.615463,148.041188,76.609550
95.724376,-9548.656652,148.041188,-306.438199
95.724702,-9326.594869,222.061783,0.000000
95.725029,-9622.677246,370.102971,0.000000
95.725355,-9252.574275,74.020594,0.000000
95.725682,-9252.574275,740.205942,459.657299
95.726008,-9400.615463,0.000000,229.828649
95.726334,-9400.615463,296.082377,0.000000
95.726661,-9474.636058,148.041188,0.000000
95.726987,-9178.553681,148.041188,0.000000
95.727314,-9178.553681,74.020594,229.828649
95.727640,-9326.594869,370.102971,306.438199
95.727966,-9400.615463,222.061783,153.219100
95.728293,-9178.553681,148.041188,0.000000
95.728619,-9474.636058,370.102971,0.000000
95.728946,-9474.636058,296.082377,153.219100
95.729272,-9474.636058,296.082377,0.000000
95.729598,-9474.636058,222.061783,0.000000
95.729925,-9252.574275,-148.041188,383.047749
95.730251,-9474.636058,222.061783,76.609550
95.730578,-9326.594869,0.000000,153.219100
95.730904,-9400.615463,0.000000,0.000000
95.731230,-9326.594869,0.000000,0.000000
95.731557,-9030.512492,0.000000,229.828649
95.731883,-9252.574275,222.061783,76.609550
95.732210,-9252.574275,0.000000,0.000000
95.732536,-9178.553681,0.000000,229.828649
95.732862,-9400.615463,0.000000,306.438199
95.733189,-9400.615463,0.000000,153.219100
95.733515,-9400.615463,148.041188,0.000000
95.733842,-9474.636058,0.000000,306.438199
95.734168,-8956.491898,0.000000,459.657299
95.734494,-9326.594869,-74.020594,76.609550
95.734821,-9400.615463,0.000000,0.000000
95.735147,-9400.615463,0.000000,76.609550
95.735474,-9400.615463,0.000000,76.609550
95.735800,-9474.636058,0.000000,0.000000
95.736126,-9252.574275,148.041188,0.000000
95.736453,-9474.636058,0.000000,0.000000
95.736779,-9400.615463,0.000000,76.609550
95.737106,-9474.636058,0.000000,0.000000
95.737432,-9474.636058,74.020594,0.000000
95.737759,-9326.594869,0.000000,76.609550
95.738085,-9474.636058,0.000000,0.000000
95.738411,-9326.594869,74.020594,0.000000
95.738738,-9400.615463,0.000000,0.000000
95.739064,-9474.636058,222.061783,459.657299
95.739391,-9548.656652,296.082377,0.000000
95.739717,-9474.636058,0.000000,76.609550
95.740043,-9474.636058,74.020594,153.219100
95.740370,-9252.574275,296.082377,0.000000
95.740696,-9400.615463,296.082377,76.609550
95.741023,-9474.636058,222.061783,0.000000
95.741349,-9770.718434,296.082377,0.000000
95.741675,-9474.636058,148.041188,0.000000
95.742002,-9548.656652,74.020594,153.219100
95.742328,-9474.636058,148.041188,153.219100
95.742655,-9326.594869,0.000000,459.657299
95.742981,-9474.636058,74.020594,459.657299
95.743307,-9474.636058,370.102971,0.000000
95.743634,-9178.553681,0.000000,0.000000
95.743960,-9548.656652,222.061783,0.000000
95.744287,-9770.718434,296.082377,0.000000
95.744613,-9400.615463,222.061783,-229.828649
95.744939,-9326.594869,0.000000,306.438199
95.745266,-9030.512492,-222.061783,306.438199
95.745592,-9696.697840,148.041188,536.266849
95.745919,-9474.636058,222.061783,0.000000
95.746245,-9326.594869,0.000000,229.828649
95.746571,-9474.636058,222.061783,306.438199
95.746898,-9474.636058,0.000000,-153.219100
95.747224,-9252.574275,0.000000,229.828649
95.747551,-9548.656652,0.000000,0.000000
95.747877,-9400.615463,296.082377,0.000000
95.748203,-9474.636058,296.082377,0.000000
95.748530,-9548.656652,296.082377,-383.047749
95.748856,-9178.553681,-148.041188,0.000000
95.749183,-9400.615463,0.000000,153.219100
95.749509,-9474.636058,0.000000,306.438199
95.749835,-9326.594869,296.082377,0.000000
95.750162,-9400.615463,0.000000,306.438199
95.750488,-9622.677246,74.020594,0.000000
95.750815,-9474.636058,0.000000,229.828649
95.751141,-9474.636058,0.000000,459.657299
95.751467,-9252.574275,-296.082377,153.219100
95.751794,-9400.615463,0.000000,459.657299
95.752120,-9622.677246,74.020594,76.609550
95.752447,-9252.574275,0.000000,0.000000
95.752773,-9548.656652,0.000000,229.828649
95.753099,-9474.636058,0.000000,-153.219100
95.753426,-9252.574275,0.000000,0.000000
95.753752,-9474.636058,296.082377,-306.438199
95.754079,-9326.594869,592.164754,0.000000
95.754405,-9548.656652,0.000000,0.000000
95.754731,-9548.656652,0.000000,383.047749
95.755058,-9622.677246,296.082377,229.828649
95.755384,-9474.636058,74.020594,383.047749
95.755711,-9474.636058,0.000000,229.828649
95.756037,-9474.636058,296.082377,76.609550
95.756364,-9474.636058,148.041188,306.438199
95.756690,-9474.636058,148.041188,229.828649
95.757016,-9400.615463,296.082377,-612.876398
95.757343,-9178.553681,148.041188,153.219100
95.757669,-9474.636058,592.164754,0.000000
95.757996,-9622.677246,296.082377,0.000000
95.758322,-9474.636058,296.082377,0.000000
95.758648,-9400.615463,148.041188,0.000000
95.758975,-9474.636058,296.082377,383.047749
95.759301,-9844.739029,148.041188,229.828649
95.759628,-9178.553681,0.000000,306.438199
95.759954,-9474.636058,370.102971,0.000000
95.760280,-9548.656652,222.061783,0.000000
95.760607,-9400.615463,370.102971,-229.828649
95.760933,-9474.636058,148.041188,0.000000
95.761259,-9178.553681,148.041188,0.000000
95.761586,-9400.615463,222.061783,0.000000
95.761912,-9474.636058,148.041188,0.000000
95.762239,-9548.656652,148.041188,0.000000
95.762565,-9474.636058,74.020594,229.828649
95.762891,-9474.636058,0.000000,459.657299
95.763218,-9696.697840,0.000000,0.000000
95.763544,-9474.636058,0.000000,76.609550
95.763870,-9474.636058,0.000000,0.000000
95.764197,-9400.615463,-148.041188,0.000000
95.764523,-9474.636058,74.020594,0.000000
95.764850,-9400.615463,0.000000,0.000000
95.765176,-9474.636058,0.000000,229.828649
95.765502,-9474.636058,222.061783,459.657299
95.765829,-9474.636058,0.000000,76.609550
95.766155,-9548.656652,-148.041188,0.000000
95.766481,-9622.677246,74.020594,0.000000
95.766808,-9474.636058,0.000000,0.000000
95.767134,-9548.656652,0.000000,153.219100
95.767461,-9474.636058,0.000000,306.438199
95.767787,-9474.636058,0.000000,76.609550
95.768113,-9474.636058,296.082377,0.000000
95.768440,-9474.636058,-296.082377,306.438199
95.768766,-9326.594869,0.000000,0.000000
95.769092,-9400.615463,148.041188,0.000000
95.769419,-9326.594869,74.020594,306.438199
95.769745,-9474.636058,444.123565,76.609550
95.770072,-9326.594869,74.020594,0.000000
95.770398,-9548.656652,222.061783,-76.609550
95.770724,-9474.636058,0.000000,0.000000
95.771051,-9400.615463,0.000000,919.314598
95.771377,-9400.615463,148.041188,0.000000
95.771704,-9474.636058,148.041188,76.609550
95.772030,-9400.615463,222.061783,0.000000
95.772356,-9326.594869,296.082377,0.000000
95.772683,-9400.615463,296.082377,383.047749
95.773009,-9548.656652,222.061783,153.219100
95.773335,-9474.636058,296.082377,153.219100
95.773662,-9400.615463,296.082377,0.000000
95.773988,-9252.574275,296.082377,-76.609550
95.774315,-9474.636058,0.000000,229.828649
95.774641,-9252.574275,0.000000,153.219100
95.774967,-9326.594869,148.041188,76.609550
95.775294,-9326.594869,0.000000,0.000000
95.775620,-9326.594869,0.000000,383.047749
95.775946,-9548.656652,148.041188,76.609550
95.776273,-9474.636058,0.000000,306.438199
95.776599,-9400.615463,222.061783,0.000000
95.776926,-9400.615463,0.000000,0.000000
95.777252,-9400.615463,148.041188,153.219100
95.777578,-9252.574275,0.000000,0.000000
95.777905,-9326.594869,0.000000,0.000000
95.778231,-9474.636058,0.000000,842.705048
95.778557,-9474.636058,0.000000,76.609550
95.778884,-9400.615463,0.000000,0.000000
95.779210,-9178.553681,-148.041188,0.000000
95.779537,-9326.594869,148.041188,0.000000
95.779863,-9622.677246,74.020594,0.000000
95.780189,-9400.615463,0.000000,306.438199
95.780516,-9474.636058,0.000000,76.609550
95.780842,-9474.636058,0.000000,229.828649
95.781169,-9474.636058,74.020594,229.828649
95.781495,-9400.615463,296.082377,0.000000
95.781821,-9400.615463,74.020594,76.609550
95.782148,-9178.553681,0.000000,153.219100
95.782474,-9030.512492,222.061783,-306.438199
95.782800,-9474.636058,0.000000,229.828649
95.783127,-9474.636058,74.020594,0.000000
95.783453,-9474.636058,222.061783,76.609550
95.783780,-9548.656652,0.000000,0.000000
95.784106,-9178.553681,74.020594,306.438199
95.784432,-9474.636058,148.041188,383.047749
95.784759,-9548.656652,0.000000,383.047749
95.785085,-9474.636058,222.061783,536.266849
95.785411,-9696.697840,148.041188,306.438199
95.785738,-9400.615463,74.020594,0.000000
95.786064,-9326.594869,148.041188,0.000000
95.786391,-9474.636058,222.061783,76.609550
95.786717,-9104.533087,222.061783,0.000000
95.787043,-9326.594869,296.082377,229.828649
95.787370,-9326.594869,148.041188,0.000000
95.787696,-9474.636058,222.061783,383.047749
95.788022,-9474.636058,0.000000,0.000000
95.788349,-9474.636058,0.000000,0.000000
95.788675,-9400.615463,222.061783,76.609550
95.789002,-9326.594869,0.000000,0.000000
95.789328,-9252.574275,0.000000,76.609550
95.789654,-9400.615463,222.061783,153.219100
95.789981,-9622.677246,370.102971,0.000000
95.790307,-9548.656652,222.061783,0.000000
95.790634,-9400.615463,148.041188,0.000000
95.790960,-9474.636058,222.061783,459.657299
95.791286,-9400.615463,296.082377,76.609550
95.791613,-9548.656652,222.061783,306.438199
95.791939,-9474.636058,148.041188,0.000000
95.792265,-9622.677246,0.000000,76.609550
95.792592,-9326.594869,0.000000,0.000000
95.792918,-9178.553681,0.000000,0.000000
95.793245,-9178.553681,0.000000,0.000000
95.793571,-9474.636058,0.000000,0.000000
95.793897,-9474.636058,74.020594,689.485948
95.794224,-9622.677246,222.061783,0.000000
95.794550,-9474.636058,0.000000,0.000000
95.794876,-9400.615463,0.000000,0.000000
95.795203,-9474.636058,370.102971,153.219100
95.795529,-9474.636058,0.000000,383.047749
95.795856,-9474.636058,0.000000,459.657299
95.796182,-9178.553681,-148.041188,76.609550
95.796508,-9474.636058,222.061783,0.000000
95.796835,-9400.615463,0.000000,-306.438199
95.797161,-9548.656652,0.000000,-306.438199
95.797487,-9252.574275,-296.082377,306.438199
95.797814,-9326.594869,0.000000,76.609550
95.798140,-8882.471304,-296.082377,229.828649
95.798467,-9474.636058,0.000000,0.000000
95.798793,-9696.697840,0.000000,76.609550
95.799119,-9622.677246,74.020594,76.609550
95.799446,-9400.615463,222.061783,306.438199
95.799772,-9400.615463,74.020594,76.609550
95.800099,-9178.553681,0.000000,0.000000
95.800425,-9104.533087,74.020594,153.219100
95.800751,-9400.615463,0.000000,229.828649
95.801078,-9400.615463,0.000000,76.609550
95.801404,-9400.615463,222.061783,0.000000
95.801730,-9548.656652,74.020594,0.000000
95.802057,-9474.636058,222.061783,0.000000
95.802383,-9400.615463,222.061783,459.657299
95.802710,-9548.656652,0.000000,306.438199
95.803036,-9474.636058,0.000000,153.219100
95.803362,-9474.636058,74.020594,383.047749
95.803689,-9548.656652,222.061783,153.219100
95.804015,-9326.594869,148.041188,153.219100
95.804341,-9178.553681,148.041188,76.609550
95.804668,-9104.533087,0.000000,306.438199
95.804994,-9252.574275,296.082377,306.438199
95.805321,-9104.533087,0.000000,306.438199
95.805647,-9548.656652,148.041188,0.000000
95.805973,-9474.636058,222.061783,0.000000
95.806300,-9326.594869,0.000000,0.000000
95.806626,-9252.574275,-296.082377,383.047749
95.806952,-9400.615463,74.020594,383.047749
95.807279,-9474.636058,74.020594,229.828649
95.807605,-9548.656652,0.000000,229.828649
95.807932,-9474.636058,0.000000,229.828649
95.808258,-9474.636058,0.000000,-306.438199
95.808584,-9400.615463,0.000000,0.000000
95.808911,-9252.574275,0.000000,0.000000
95.809237,-9474.636058,148.041188,0.000000
95.809564,-9178.553681,148.041188,229.828649
95.809890,-9400.615463,148.041188,153.219100
95.810216,-9400.615463,0.000000,229.828649
95.810543,-9326.594869,0.000000,153.219100
95.810869,-9178.553681,0.000000,-229.828649
95.811195,-9474.636058,296.082377,0.000000
95.811522,-9474.636058,74.020594,153.219100
95.811848,-9474.636058,74.020594,0.000000
95.812175,-9474.636058,74.020594,-153.219100
95.812501,-9252.574275,0.000000,229.828649
95.812827,-9474.636058,0.000000,0.000000
95.813154,-9696.697840,222.061783,76.609550
95.813480,-9400.615463,148.041188,459.657299
95.813806,-9400.615463,0.000000,689.485948
95.814133,-9400.615463,0.000000,0.000000
95.814459,-9548.656652,0.000000,0.000000
95.814786,-9474.636058,0.000000,229.828649
95.815112,-9104.533087,0.000000,306.438199
95.815438,-9326.594869,0.000000,306.438199
95.815765,-9400.615463,148.041188,0.000000
95.816091,-9474.636058,296.082377,0.000000
95.816417,-9548.656652,296.082377,0.000000
95.816744,-9326.594869,74.020594,153.219100
95.817070,-9326.594869,74.020594,229.828649
95.817397,-9474.636058,0.000000,76.609550
95.817723,-9474.636058,0.000000,383.047749
95.818049,-9400.615463,0.000000,76.609550
95.818376,-9178.553681,0.000000,229.828649
95.818702,-9104.533087,0.000000,153.219100
95.819028,-9178.553681,0.000000,0.000000
95.819355,-9474.636058,518.144159,0.000000
95.819681,-9474.636058,148.041188,0.000000
95.820008,-9252.574275,0.000000,153.219100
95.820334,-9326.594869,74.020594,76.609550
95.820660,-9400.615463,296.082377,0.000000
95.820987,-9252.574275,-296.082377,229.828649
95.821313,-9474.636058,0.000000,536.266849
95.821640,-9622.677246,222.061783,76.609550
95.821966,-9548.656652,0.000000,153.219100
95.822292,-9474.636058,0.000000,459.657299
95.822619,-9400.615463,0.000000,0.000000
95.822945,-9326.594869,0.000000,0.000000
95.823271,-9326.594869,0.000000,-229.828649
95.823598,-9326.594869,0.000000,153.219100
95.823924,-9400.615463,0.000000,-306.438199
95.824251,-9770.718434,0.000000,-153.219100
95.824577,-9696.697840,222.061783,0.000000
95.824903,-9326.594869,0.000000,306.438199
95.825230,-9400.615463,0.000000,306.438199
95.825556,-9326.594869,0.000000,612.876398
95.825882,-9622.677246,74.020594,153.219100
95.826209,-9696.697840,74.020594,536.266849
95.826535,-9252.574275,0.000000,612.876398
95.826862,-9400.615463,74.020594,76.609550
95.827188,-9474.636058,74.020594,0.000000
95.827514,-9104.533087,0.000000,0.000000
95.827841,-9104.533087,0.000000,306.438199
95.828167,-9252.574275,0.000000,229.828649
95.828493,-9548.656652,148.041188,229.828649
95.828820,-9548.656652,74.020594,0.000000
95.829146,-9548.656652,222.061783,0.000000
95.829473,-9474.636058,148.041188,76.609550
95.829799,-9474.636058,296.082377,76.609550
95.830125,-9474.636058,296.082377,229.828649
95.830452,-9326.594869,222.061783,0.000000
95.830778,-9178.553681,370.102971,-229.828649
95.831105,-9326.594869,148.041188,-229.828649
95.831431,-9474.636058,0.000000,0.000000
95.831757,-9178.553681,0.000000,76.609550
95.832084,-9548.656652,0.000000,229.828649
95.832410,-9326.594869,0.000000,153.219100
95.832736,-9400.615463,74.020594,76.609550
95.833063,-9400.615463,0.000000,383.047749
95.833389,-9622.677246,148.041188,76.609550
95.833716,-9474.636058,0.000000,306.438199
95.834042,-9548.656652,0.000000,0.000000
95.834368,-9474.636058,74.020594,153.219100
95.834695,-9474.636058,148.041188,383.047749
95.835021,-9548.656652,222.061783,536.266849
95.835347,-9400.615463,74.020594,229.828649
95.835674,-9326.594869,296.082377,0.000000
95.836000,-9326.594869,148.041188,0.000000
95.836327,-9400.615463,74.020594,0.000000
95.836653,-9474.636058,74.020594,153.219100
95.836979,-9548.656652,0.000000,229.828649
95.837306,-9548.656652,222.061783,229.828649
95.837632,-9992.780217,592.164754,229.828649
95.837958,-10140.821405,0.000000,0.000000
95.838285,-9992.780217,74.020594,0.000000
95.838611,-9770.718434,74.020594,306.438199
95.838938,-9474.636058,0.000000,383.047749
95.839264,-9252.574275,-444.123565,153.219100
95.839590,-9474.636058,0.000000,459.657299
95.839917,-9474.636058,74.020594,229.828649
95.840243,-9474.636058,0.000000,0.000000
95.840570,-9548.656652,74.020594,0.000000
95.840896,-9474.636058,0.000000,0.000000
95.841222,-9696.697840,0.000000,-153.219100
95.841549,-9844.739029,370.102971,0.000000
95.841875,-10288.862594,296.082377,459.657299
95.842201,-10584.944971,222.061783,306.438199
95.842528,-11103.089130,518.144159,229.828649
95.842854,-11399.171507,518.144159,-76.609550
95.843181,-10955.047942,148.041188,76.609550
95.843507,-10955.047942,222.061783,383.047749
95.843833,-10288.862594,0.000000,306.438199
95.844160,-9992.780217,0.000000,842.705048
95.844486,-9400.615463,-222.061783,229.828649
95.844812,-9474.636058,-518.144159,0.000000
95.845139,-9104.533087,-296.082377,-153.219100
95.845465,-8734.430116,-296.082377,0.000000
95.845792,-9030.512492,-444.123565,0.000000
95.846118,-8956.491898,-370.102971,153.219100
95.846444,-9178.553681,-444.123565,459.657299
95.846771,-9844.739029,222.061783,76.609550
95.847097,-9992.780217,148.041188,-383.047749
95.847423,-10807.006753,0.000000,0.000000
95.847750,-10732.986159,74.020594,153.219100
95.848076,-10807.006753,370.102971,229.828649
95.848403,-10362.883188,0.000000,536.266849
95.848729,-10436.903782,0.000000,766.095498
95.849055,-10214.842000,0.000000,536.266849
95.849382,-9696.697840,0.000000,229.828649
95.849708,-9400.615463,-74.020594,306.438199
95.850035,-8734.430116,0.000000,-153.219100
95.850361,-8438.347739,0.000000,76.609550
95.850687,-8068.244768,148.041188,-459.657299
95.851014,-8290.306550,0.000000,76.609550
95.851340,-8808.450710,0.000000,229.828649
95.851666,-9252.574275,-74.020594,0.000000
95.851993,-8956.491898,0.000000,-459.657299
95.852319,-9400.615463,0.000000,-459.657299
95.852646,-9400.615463,0.000000,306.438199
95.852972,-9400.615463,0.000000,536.266849
95.853298,-9696.697840,592.164754,383.047749
95.853625,-9844.739029,296.082377,842.705048
95.853951,-9992.780217,814.226536,0.000000
95.854277,-10362.883188,666.185348,0.000000
95.854604,-9918.759623,888.247130,0.000000
95.854930,-9992.780217,814.226536,76.609550
95.855257,-9474.636058,962.267725,306.438199
95.855583,-9770.718434,888.247130,0.000000
95.855909,-10362.883188,1036.288319,-306.438199
95.856236,-10881.027347,444.123565,-306.438199
95.856562,-10510.924376,592.164754,-536.266849
95.856888,-10807.006753,518.144159,0.000000
95.857215,-10732.986159,0.000000,153.219100
95.857541,-10584.944971,0.000000,383.047749
95.857868,-10214.842000,-740.205942,459.657299
95.858194,-9770.718434,-592.164754,306.438199
95.858520,-9252.574275,-592.164754,0.000000
95.858847,-8956.491898,-962.267725,0.000000
95.859173,-8216.285956,-1184.329507,306.438199
95.859500,-8364.327145,-740.205942,0.000000
95.859826,-7994.224174,-592.164754,0.000000
95.860152,-8364.327145,-296.082377,0.000000
95.860479,-8882.471304,-222.061783,612.876398
95.860805,-9474.636058,0.000000,-153.219100
95.861131,-10436.903782,666.185348,0.000000
95.861458,-11251.130318,518.144159,536.266849
95.861784,-11991.336260,740.205942,229.828649
95.862111,-12435.459826,444.123565,459.657299
95.862437,-12287.418637,444.123565,459.657299
95.862763,-12139.377449,370.102971,0.000000
95.863090,-11473.192101,74.020594,0.000000
95.863416,-10732.986159,-222.061783,153.219100
95.863743,-9696.697840,-666.185348,0.000000
95.864069,-8142.265362,-962.267725,76.609550
95.864395,-6883.915261,-1110.308913,0.000000
95.864722,-5921.647536,-1184.329507,0.000000
95.865048,-5995.668130,-888.247130,-306.438199
95.865375,-6365.771101,-518.144159,0.000000
95.865701,-7698.141797,148.041188,-306.438199
95.866027,-9104.533087,666.185348,0.000000
95.866354,-10362.883188,1554.432478,-306.438199
95.866680,-11843.295072,1628.453072,-229.828649
95.867006,-12805.562797,2072.576638,229.828649
95.867333,-13989.892304,1998.556043,383.047749
95.867659,-14137.933492,1776.494261,1072.533697
95.867986,-14211.954086,1110.308913,1072.533697
95.868312,-13767.830521,814.226536,612.876398
95.868638,-11843.295072,0.000000,689.485948
95.868965,-9474.636058,-296.082377,0.000000
95.869291,-7105.977043,-1184.329507,76.609550
95.869618,-5181.441594,-1332.370696,-229.828649
95.869944,-4145.153275,-1480.411884,-306.438199
95.870270,-3923.091493,-1480.411884,-995.924147
95.870597,-4885.359217,-962.267725,-919.314598
95.870923,-6069.688724,-518.144159,-1225.752797
95.871249,-7550.100608,-518.144159,-995.924147
95.871576,-8512.368333,-740.205942,0.000000
95.871902,-9844.739029,222.061783,1302.362347
95.872229,-11251.130318,148.041188,1685.410096
95.872555,-12879.583391,666.185348,1455.581446
95.872881,-13841.851115,888.247130,1378.971896
95.873208,-14063.912898,1628.453072,995.924147
95.873534,-13767.830521,1702.473667,306.438199
95.873861,-12953.603985,1332.370696,-459.657299
95.874187,-12435.459826,1480.411884,-766.095498
95.874513,-10510.924376,1036.288319,-383.047749
95.874840,-9474.636058,518.144159,-612.876398
95.875166,-8216.285956,-370.102971,0.000000
95.875493,-7920.203579,-888.247130,-306.438199
95.875819,-6957.935855,-1554.432478,1072.533697
95.876145,-6587.832884,-1850.514855,919.314598
95.876472,-6735.874072,-1480.411884,842.705048
95.876798,-7105.977043,-1110.308913,306.438199
95.877124,-8586.388927,0.000000,-612.876398
95.877451,-9252.574275,148.041188,-536.266849
95.877777,-9918.759623,518.144159,-1762.019645
95.878104,-11029.068536,740.205942,-306.438199
95.878430,-11399.171507,370.102971,306.438199
95.878756,-11177.109724,370.102971,1532.190996
95.879083,-11843.295072,0.000000,2298.286494
95.879409,-11843.295072,0.000000,2298.286494
95.879736,-11769.274478,-222.061783,2298.286494
95.880062,-11547.212695,0.000000,-306.438199
95.880388,-10881.027347,-370.102971,-919.314598
95.880715,-9400.615463,-74.020594,-1455.581446
95.881041,-8660.409521,0.000000,-1838.629195
95.881367,-8734.430116,-296.082377,-1455.581446
95.881694,-8808.450710,-592.164754,-536.266849
95.882020,-8512.368333,-148.041188,-153.219100
95.882347,-8290.306550,-518.144159,-612.876398
95.882673,-7402.059420,-148.041188,-536.266849
95.882999,-7105.977043,0.000000,-306.438199
95.883326,-7402.059420,0.000000,0.000000
95.883652,-7179.997637,148.041188,229.828649
95.883979,-7179.997637,0.000000,0.000000
95.884305,-7550.100608,222.061783,459.657299
95.884631,-8364.327145,888.247130,459.657299
95.884958,-9844.739029,666.185348,536.266849
95.885284,-10214.842000,518.144159,919.314598
95.885611,-11177.109724,888.247130,1838.629195
95.885937,-11547.212695,1258.350101,1685.410096
95.886263,-12509.480420,1332.370696,766.095498
95.886590,-13323.706956,962.267725,306.438199
95.886916,-12435.459826,740.205942,383.047749
95.887242,-10658.965565,592.164754,459.657299
95.887569,-9030.512492,0.000000,1149.143247
95.887895,-7105.977043,-74.020594,76.609550
95.888222,-6143.709319,0.000000,0.000000
95.888548,-5477.523971,0.000000,-766.095498
95.888874,-5477.523971,0.000000,-2221.676944
95.889201,-6143.709319,-518.144159,-1991.848295
95.889527,-6809.894666,-370.102971,-1685.410096
95.889854,-7254.018232,-518.144159,0.000000
95.890180,-8290.306550,-518.144159,1225.752797
95.890506,-9918.759623,-444.123565,1685.410096
95.890833,-11769.274478,-296.082377,1072.533697
95.891159,-13101.645173,148.041188,536.266849
95.891485,-14063.912898,518.144159,-153.219100
95.891812,-15100.201217,814.226536,-383.047749
95.892138,-14730.098246,1184.329507,-383.047749
95.892465,-13693.809927,296.082377,842.705048
95.892791,-11325.150913,74.020594,1072.533697
95.893117,-8438.347739,-666.185348,1302.362347
95.893444,-6735.874072,-1036.288319,459.657299
95.893770,-4515.256246,-962.267725,-383.047749
95.894097,-3330.926739,-518.144159,-919.314598
95.894423,-3627.009116,-814.226536,-1762.019645
95.894749,-4663.297435,-74.020594,-306.438199
95.895076,-6365.771101,0.000000,-612.876398
95.895402,-8438.347739,666.185348,-306.438199
95.895729,-10436.903782,518.144159,-76.609550
95.896055,-13323.706956,666.185348,1225.752797
95.896381,-13841.851115,74.020594,1838.629195
95.896708,-14285.974681,740.205942,1532.190996
95.897034,-15840.407159,1184.329507,1915.238745
95.897360,-15322.262999,888.247130,1915.238745
95.897687,-14952.160028,814.226536,842.705048
95.898013,-12805.562797,0.000000,76.609550
95.898340,-10214.842000,-444.123565,-306.438199
95.898666,-6365.771101,-592.164754,76.609550
95.898992,-2516.700203,-296.082377,-995.924147
95.899319,-740.205942,-888.247130,-919.314598
95.899645,-666.185348,-1406.391290,-2068.457845
95.899972,-1184.329507,-1110.308913,-766.095498
95.900298,-3404.947333,-592.164754,-1149.143247
95.900624,-6587.832884,370.102971,-995.924147
95.900951,-9548.656652,814.226536,306.438199
95.901277,-13101.645173,1258.350101,306.438199
95.901603,-14508.036463,666.185348,1532.190996
95.901930,-15396.283594,740.205942,995.924147
95.902256,-16210.510130,1036.288319,1915.238745
95.902583,-16802.674883,1406.391290,2298.286494
95.902909,-16506.592507,1184.329507,1455.581446
95.903235,-12953.603985,1036.288319,1991.848295
95.903562,-12583.501014,370.102971,-612.876398
95.903888,-7550.100608,0.000000,-153.219100
95.904215,-4515.256246,-370.102971,-1915.238745
95.904541,-1850.514855,-888.247130,-3447.429741
95.904867,296.082377,-1036.288319,-1225.752797
95.905194,148.041188,-1776.494261,-1378.971896
95.905520,-1406.391290,-1702.473667,-1532.190996
95.905847,-3923.091493,0.000000,0.000000
95.906173,-8364.327145,222.061783,689.485948
95.906499,-11325.150913,962.267725,766.095498
95.906826,-13249.686362,1036.288319,383.047749
95.907152,-16506.592507,814.226536,1149.143247
95.907478,-16580.613101,666.185348,1532.190996
95.907805,-17764.942608,1480.411884,2374.896044
95.908131,-17246.798449,1110.308913,3600.648841
95.908458,-15914.427753,962.267725,1608.800546
95.908784,-14285.974681,962.267725,2757.943793
95.909110,-9548.656652,-740.205942,-766.095498
95.909437,-6217.729913,0.000000,-2451.505594
95.909763,-3775.050304,-592.164754,-3217.601092
95.910090,-2072.576638,-518.144159,-2528.115143
95.910416,0.000000,-1406.391290,-2451.505594
95.910742,-370.102971,-1332.370696,-2757.943793
95.911069,-2738.761985,-1332.370696,-536.266849
95.911395,-7254.018232,-518.144159,-383.047749
95.911721,-9252.574275,-148.041188,459.657299
95.912048,-11251.130318,0.000000,1685.410096
95.912374,-14285.974681,1036.288319,1838.629195
95.912701,-16136.489536,296.082377,2145.067394
95.913027,-18209.066173,666.185348,842.705048
95.913353,-17024.736666,1258.350101,2221.676944
95.913680,-16432.571912,1776.494261,3370.820191
95.914006,-15618.345376,370.102971,2221.676944
95.914333,-10510.924376,-296.082377,612.876398
95.914659,-7846.182985,148.041188,-383.047749
95.914985,-4367.215058,-592.164754,-1455.581446
95.915312,-2368.659014,0.000000,-3064.381992
95.915638,-1184.329507,-814.226536,-2834.553343
95.915965,-1628.453072,-962.267725,-2451.505594
95.916291,-2886.803174,-740.205942,-1608.800546
95.916617,-4959.379811,-370.102971,-689.485948
95.916944,-8364.327145,0.000000,-383.047749
95.917270,-10214.842000,0.000000,1149.143247
95.917596,-12953.603985,814.226536,2374.896044
95.917923,-13767.830521,0.000000,2451.505594
95.918249,-15766.386565,222.061783,919.314598
95.918576,-16358.551318,1184.329507,3140.991542
95.918902,-15544.324782,2368.659014,2298.286494
95.919228,-15100.201217,1850.514855,2451.505594
95.919555,-13175.665768,-296.082377,383.047749
95.919881,-8956.491898,-370.102971,-612.876398
95.920208,-4441.235652,74.020594,-1302.362347
95.920534,-2812.782580,444.123565,-2987.772442
95.920860,-2072.576638,0.000000,-2451.505594
95.921187,-3034.844362,-296.082377,-3600.648841
95.921513,-3256.906145,-296.082377,-1378.971896
95.921839,-5033.400406,-592.164754,-842.705048
95.922166,-8290.306550,74.020594,-689.485948
95.922492,-12139.377449,-592.164754,1991.848295
95.922819,-10658.965565,-1036.288319,1072.533697
95.923145,-12065.356855,-666.185348,3140.991542
95.923471,-14434.015869,814.226536,2145.067394
95.923798,-17024.736666,0.000000,1302.362347
95.924124,-18135.045579,1036.288319,2681.334243
95.924451,-14063.912898,1998.556043,1225.752797
95.924777,-13397.727550,888.247130,1991.848295
95.925103,-10140.821405,-2368.659014,-919.314598
95.925430,-5033.400406,-740.205942,-995.924147
95.925756,-3182.885551,814.226536,-1225.752797
95.926083,-2738.761985,-370.102971,-2374.896044
95.926409,-2516.700203,-1036.288319,-2145.067394
95.926735,-3701.029710,-518.144159,-3600.648841
95.927062,-4515.256246,1036.288319,-995.924147
95.927388,-8068.244768,-222.061783,-1225.752797
95.927714,-10140.821405,74.020594,459.657299
95.928041,-11251.130318,518.144159,2145.067394
95.928367,-12065.356855,814.226536,1455.581446
95.928694,-13323.706956,0.000000,3830.477490
95.929020,-16284.530724,-1184.329507,766.095498
95.929346,-17320.819043,740.205942,2145.067394
95.929673,-15988.448347,1850.514855,2681.334243
95.929999,-12509.480420,1332.370696,1149.143247
95.930326,-10214.842000,0.000000,1072.533697
95.930652,-8290.306550,-1480.411884,-1838.629195
95.930978,-4663.297435,0.000000,-1072.533697
95.931305,-2220.617826,0.000000,-3677.258390
95.931631,-2442.679609,740.205942,-1225.752797
95.931957,-2664.741391,-1184.329507,-2987.772442
95.932284,-4737.318029,0.000000,-1378.971896
95.932610,-6957.935855,-518.144159,76.609550
95.932937,-9252.574275,814.226536,-919.314598
95.933263,-12879.583391,296.082377,1455.581446
95.933589,-12287.418637,-370.102971,459.657299
95.933916,-12065.356855,148.041188,2681.334243
95.934242,-13693.809927,222.061783,1455.581446
95.934569,-17172.777854,-518.144159,1762.019645
95.934895,-17024.736666,666.185348,3524.039291
95.935221,-12805.562797,1258.350101,1762.019645
95.935548,-11177.109724,592.164754,2298.286494
95.935874,-9104.533087,-3182.885551,-995.924147
95.936201,-5847.626942,-666.185348,-1225.752797
95.936527,-2664.741391,1036.288319,-2451.505594
95.936853,-1480.411884,-888.247130,-3064.381992
95.937180,-2294.638420,-1258.350101,-995.924147
95.937506,-3849.070898,-592.164754,-2451.505594
95.937832,-5403.503377,296.082377,-383.047749
95.938159,-8290.306550,148.041188,0.000000
95.938485,-11917.315666,814.226536,-536.266849
95.938812,-12657.521608,370.102971,1455.581446
95.939138,-12139.377449,814.226536,536.266849
95.939464,-14359.995275,740.205942,2604.724693
95.939791,-15396.283594,-1258.350101,1225.752797
95.940117,-16728.654289,0.000000,3294.210641
95.940444,-14878.139434,2368.659014,3830.477490
95.940770,-9622.677246,1924.535449,459.657299
95.941096,-10436.903782,-370.102971,229.828649
95.941423,-8068.244768,-1850.514855,-3217.601092
95.941749,-3849.070898,444.123565,-995.924147
95.942075,-3034.844362,0.000000,-3600.648841
95.942402,-1998.556043,1184.329507,-1225.752797
95.942728,-4219.173869,-814.226536,-1838.629195
95.943055,-6217.729913,148.041188,-1072.533697
95.943381,-7179.997637,518.144159,-383.047749
95.943707,-11177.109724,444.123565,-153.219100
95.944034,-13619.789333,814.226536,1455.581446
95.944360,-11843.295072,-592.164754,1532.190996
95.944687,-13249.686362,148.041188,1455.581446
95.945013,-12657.521608,-148.041188,1072.533697
95.945339,-18283.086767,-666.185348,1685.410096
95.945666,-16580.613101,592.164754,4213.525239
95.945992,-11399.171507,1184.329507,76.609550
95.946319,-9918.759623,370.102971,2374.896044
95.946645,-6883.915261,-4515.256246,-1149.143247
95.946971,-3997.112087,-518.144159,153.219100
95.947298,-1998.556043,740.205942,-1915.238745
95.947624,-2072.576638,222.061783,-2374.896044
95.947950,-4219.173869,-740.205942,-1149.143247
95.948277,-5995.668130,0.000000,-2681.334243
95.948603,-6809.894666,1184.329507,-1225.752797
95.948930,-9770.718434,74.020594,0.000000
95.949256,-12139.377449,962.267725,1149.143247
95.949582,-12139.377449,-370.102971,1455.581446
95.949909,-12139.377449,666.185348,1455.581446
95.950235,-14211.954086,1036.288319,2451.505594
95.950562,-17024.736666,-814.226536,842.705048
95.950888,-18061.024985,592.164754,3370.820191
95.951214,-13841.851115,2368.659014,2374.896044
95.951541,-9030.512492,1924.535449,689.485948
95.951867,-6069.688724,-1554.432478,229.828649
95.952193,-3627.009116,-2220.617826,-2145.067394
95.952520,-2812.782580,0.000000,-1455.581446
95.952846,-3330.926739,0.000000,-3600.648841
95.953173,-3182.885551,1258.350101,-1685.410096
95.953499,-5477.523971,-592.164754,-2374.896044
95.953825,-7550.100608,444.123565,-1532.190996
95.954152,-9400.615463,296.082377,-306.438199
95.954478,-12213.398043,740.205942,536.266849
95.954805,-13027.624579,1406.391290,2911.162892
95.955131,-13101.645173,1036.288319,1225.752797
95.955457,-14582.057057,148.041188,2528.115143
95.955784,-14804.118840,-740.205942,0.000000
95.956110,-18135.045579,-296.082377,919.314598
95.956437,-14878.139434,1480.411884,3064.381992
95.956763,-9696.697840,740.205942,0.000000
95.957089,-6513.812290,-296.082377,2298.286494
95.957416,-4663.297435,-3552.988522,-2145.067394
95.957742,-2368.659014,-1036.288319,-919.314598
95.958068,-2294.638420,-888.247130,-2221.676944
95.958395,-1258.350101,592.164754,-2681.334243
95.958721,-3034.844362,222.061783,-1838.629195
95.959048,-6069.688724,518.144159,-612.876398
95.959374,-8808.450710,814.226536,-919.314598
95.959700,-11769.274478,518.144159,-153.219100
95.960027,-14063.912898,1776.494261,1149.143247
95.960353,-14508.036463,592.164754,1225.752797
95.960680,-13841.851115,962.267725,1762.019645
95.961006,-15322.262999,814.226536,1838.629195
95.961332,-16876.695478,222.061783,1915.238745
95.961659,-17024.736666,666.185348,3447.429741
95.961985,-13693.809927,1998.556043,1915.238745
95.962312,-6661.853478,518.144159,-153.219100
95.962638,-6143.709319,-1332.370696,-612.876398
95.962964,-3775.050304,-2220.617826,-2221.676944
95.963291,-962.267725,-148.041188,-1838.629195
95.963617,-1258.350101,0.000000,-2298.286494
95.963944,-2738.761985,592.164754,-2145.067394
95.964270,-5107.421000,-592.164754,-1608.800546
95.964596,-8364.327145,-148.041188,-1532.190996
95.964923,-10288.862594,592.164754,-919.314598
95.965249,-12583.501014,1258.350101,842.705048
95.965576,-14730.098246,962.267725,1838.629195
95.965902,-12953.603985,0.000000,2145.067394
95.966228,-13767.830521,-592.164754,919.314598
95.966555,-15988.448347,444.123565,2374.896044
95.966881,-18875.251521,444.123565,1149.143247
95.967208,-15026.180623,-370.102971,2374.896044
95.967534,-9326.594869,0.000000,1455.581446
95.967860,-5329.482782,-666.185348,612.876398
95.968187,-4811.338623,-3330.926739,-229.828649
95.968513,-1702.473667,-1036.288319,-2681.334243
95.968840,-296.082377,888.247130,-2298.286494
95.969166,-2664.741391,-370.102971,-1762.019645
95.969492,-3256.906145,-1554.432478,-2451.505594
95.969819,-5255.462188,888.247130,-459.657299
95.970145,-9770.718434,1258.350101,-689.485948
95.970472,-12361.439231,666.185348,1762.019645
95.970798,-13545.768739,1258.350101,612.876398
95.971124,-14952.160028,1480.411884,919.314598
95.971451,-14878.139434,888.247130,1302.362347
95.971777,-15544.324782,0.000000,1378.971896
95.972104,-16654.633695,296.082377,2757.943793
95.972430,-16728.654289,666.185348,2987.772442
95.972756,-12657.521608,1110.308913,2604.724693
95.973083,-6587.832884,444.123565,-306.438199
95.973409,-4959.379811,-740.205942,-1991.848295
95.973736,-3849.070898,-2368.659014,-2298.286494
95.974062,-1998.556043,-296.082377,-2451.505594
95.974388,-370.102971,888.247130,-2528.115143
95.974715,-3849.070898,0.000000,-995.924147
95.975041,-4515.256246,-740.205942,-1072.533697
95.975368,-8216.285956,148.041188,-1455.581446
95.975694,-11177.109724,740.205942,-383.047749
95.976021,-13249.686362,1110.308913,1302.362347
95.976347,-13619.789333,-222.061783,1378.971896
95.976673,-14508.036463,666.185348,2911.162892
95.977000,-13767.830521,518.144159,612.876398
95.977326,-16136.489536,-1702.473667,1302.362347
95.977653,-17320.819043,1184.329507,2298.286494
95.977979,-14211.954086,444.123565,536.266849
95.978305,-9992.780217,-148.041188,1838.629195
95.978632,-5181.441594,-2146.597232,-1302.362347
95.978958,-3182.885551,-3108.864956,153.219100
95.979285,-1110.308913,-962.267725,-1455.581446
95.979611,-222.061783,740.205942,-3370.820191
95.979937,-2294.638420,1924.535449,-1302.362347
95.980264,-5107.421000,-740.205942,-2145.067394
95.980590,-7254.018232,0.000000,0.000000
95.980917,-10066.800811,0.000000,-1685.410096
95.981243,-12361.439231,1110.308913,919.314598
95.981569,-13175.665768,444.123565,2145.067394
95.981896,-13397.727550,740.205942,1991.848295
95.982222,-14211.954086,1628.453072,2604.724693
95.982549,-17542.880825,-518.144159,995.924147
95.982875,-17764.942608,1184.329507,3524.039291
95.983201,-16358.551318,1036.288319,2298.286494
95.983528,-11325.150913,1480.411884,1608.800546
95.983854,-6661.853478,-888.247130,-153.219100
95.984181,-3330.926739,-2664.741391,-1762.019645
95.984507,-222.061783,-296.082377,-1532.190996
95.984833,-1924.535449,148.041188,-3140.991542
95.985160,-3182.885551,888.247130,-1685.410096
95.985486,-3552.988522,-296.082377,-3294.210641
95.985813,-7105.977043,518.144159,-612.876398
95.986139,-9548.656652,-296.082377,-995.924147
95.986465,-11399.171507,1406.391290,153.219100
95.986792,-14434.015869,962.267725,2145.067394
95.987118,-12435.459826,222.061783,1838.629195
95.987445,-13619.789333,-370.102971,2681.334243
95.987771,-16358.551318,740.205942,1378.971896
95.988097,-18431.127956,0.000000,919.314598
95.988424,-16728.654289,444.123565,2298.286494
95.988750,-12361.439231,1480.411884,1608.800546
95.989077,-6069.688724,-296.082377,995.924147
95.989403,-4515.256246,-2368.659014,229.828649
95.989729,-1924.535449,-2442.679609,-2374.896044
95.990056,-962.267725,-148.041188,-1302.362347
95.990382,-2368.659014,370.102971,-1915.238745
95.990709,-2368.659014,1110.308913,-2757.943793
95.991035,-5921.647536,222.061783,-2221.676944
95.991361,-9474.636058,888.247130,-1991.848295
95.991688,-11991.336260,1036.288319,0.000000
95.992014,-13323.706956,1036.288319,1608.800546
95.992341,-14359.995275,1850.514855,2374.896044
95.992667,-15100.201217,814.226536,2451.505594
95.992993,-15026.180623,-888.247130,1685.410096
95.993320,-16950.716072,814.226536,3064.381992
95.993646,-18209.066173,1258.350101,1915.238745
95.993973,-14211.954086,1110.308913,2145.067394
95.994299,-9918.759623,222.061783,536.266849
95.994625,-3552.988522,-1702.473667,-842.705048
95.994952,-2664.741391,-1628.453072,-383.047749
95.995278,-2220.617826,-2294.638420,-3294.210641
95.995605,-1110.308913,-74.020594,-2221.676944
95.995931,-2516.700203,518.144159,-1149.143247
95.996257,-2368.659014,592.164754,-1915.238745
95.996584,-7031.956449,-296.082377,-1532.190996
95.996910,-10584.944971,-370.102971,-612.876398
95.997237,-13323.706956,1258.350101,842.705048
95.997563,-14878.139434,1110.308913,2068.457845
95.997889,-12361.439231,148.041188,306.438199
95.998216,-15322.262999,370.102971,2374.896044
95.998542,-16358.551318,-592.164754,1149.143247
95.998869,-16802.674883,148.041188,919.314598
95.999195,-16210.510130,1406.391290,1915.238745
95.999521,-10066.800811,1036.288319,1685.410096
95.999848,-7179.997637,-2072.576638,1532.190996
96.000174,-3552.988522,-3404.947333,-1608.800546
96.000501,-1554.432478,-74.020594,-1532.190996
96.000827,-1258.350101,-814.226536,-2451.505594
96.001153,-592.164754,1924.535449,-3447.429741
96.001480,-1850.514855,962.267725,-3600.648841
96.001806,-5551.544565,0.000000,-1149.143247
96.002133,-8956.491898,370.102971,0.000000
96.002459,-11621.233289,888.247130,766.095498
96.002785,-13619.789333,1850.514855,2145.067394
96.003112,-15174.221811,0.000000,919.314598
96.003438,-15692.365970,1110.308913,2451.505594
96.003765,-15988.448347,1184.329507,1991.848295
96.004091,-18135.045579,296.082377,2298.286494
96.004417,-16062.468941,1184.329507,4136.915689
96.004744,-14434.015869,1628.453072,2298.286494
96.005070,-7698.141797,0.000000,383.047749
96.005397,-5033.400406,-1628.453072,-1225.752797
96.005723,-3404.947333,-1258.350101,-2834.553343
96.006049,-814.226536,-74.020594,-2221.676944
96.006376,-2442.679609,518.144159,-1838.629195
96.006702,-1776.494261,0.000000,-1915.238745
96.007029,-4219.173869,-740.205942,-1378.971896
96.007355,-9178.553681,-666.185348,-612.876398
96.007681,-10362.883188,-222.061783,-1149.143247
96.008008,-12361.439231,2072.576638,995.924147
96.008334,-14211.954086,1776.494261,1608.800546
96.008661,-13767.830521,148.041188,2298.286494
96.008987,-16062.468941,-1036.288319,1608.800546
96.009313,-15100.201217,-296.082377,1838.629195
96.009640,-18135.045579,-222.061783,1532.190996
96.009966,-15248.242405,1258.350101,2757.943793
96.010293,-8956.491898,370.102971,766.095498
96.010619,-6439.791695,-1480.411884,459.657299
96.010945,-3256.906145,-3478.967927,-689.485948
96.011272,-1332.370696,-148.041188,-1915.238745
96.011598,-962.267725,-296.082377,-2681.334243
96.011925,-2146.597232,1184.329507,-1915.238745
96.012251,-4219.173869,444.123565,-2681.334243
96.012577,-7105.977043,592.164754,-1455.581446
96.012904,-10807.006753,148.041188,-1149.143247
96.013230,-11547.212695,1406.391290,536.266849
96.013557,-12805.562797,1998.556043,1991.848295
96.013883,-13545.768739,666.185348,2221.676944
96.014209,-15766.386565,0.000000,2298.286494
96.014536,-15988.448347,-592.164754,995.924147
96.014862,-17468.860231,592.164754,1532.190996
96.015189,-15914.427753,1702.473667,2987.772442
96.015515,-11029.068536,1184.329507,612.876398
96.015841,-7698.141797,-518.144159,612.876398
96.016168,-3701.029710,-3330.926739,-1302.362347
96.016494,-370.102971,-962.267725,-1455.581446
96.016821,-1110.308913,-518.144159,-2374.896044
96.017147,-2516.700203,1702.473667,-2221.676944
96.017473,-4145.153275,1332.370696,-2757.943793
96.017800,-6365.771101,740.205942,-1455.581446
96.018126,-9844.739029,0.000000,-919.314598
96.018453,-11991.336260,592.164754,-76.609550
96.018779,-13915.871710,1850.514855,1072.533697
96.019105,-15174.221811,518.144159,2145.067394
96.019432,-13545.768739,-1406.391290,1762.019645
96.019758,-13175.665768,-1258.350101,1685.410096
96.020085,-16802.674883,1110.308913,2221.676944
96.020411,-18283.086767,444.123565,1302.362347
96.020737,-14804.118840,-518.144159,1991.848295
96.021064,-5847.626942,-1702.473667,459.657299
96.021390,-1702.473667,-1702.473667,76.609550
96.021717,-2368.659014,-2516.700203,-1072.533697
96.022043,-666.185348,-740.205942,-3447.429741
96.022369,-2072.576638,2146.597232,-2068.457845
96.022696,-5255.462188,222.061783,-2374.896044
96.023022,-4959.379811,-888.247130,-1991.848295
96.023349,-9104.533087,1332.370696,-2451.505594
96.023675,-11843.295072,1776.494261,1072.533697
96.024001,-13323.706956,1110.308913,1685.410096
96.024328,-14730.098246,370.102971,2374.896044
96.024654,-14730.098246,222.061783,2681.334243
96.024981,-14582.057057,74.020594,1915.238745
96.025307,-17098.757260,1184.329507,2374.896044
96.025633,-17912.983796,296.082377,1762.019645
96.025960,-14211.954086,-370.102971,1532.190996
96.026286,-9030.512492,-444.123565,1378.971896
96.026613,-3330.926739,-148.041188,-383.047749
96.026939,-2516.700203,-2590.720797,-2757.943793
96.027265,-2368.659014,222.061783,-1838.629195
96.027592,-3108.864956,148.041188,-3217.601092
96.027918,-2442.679609,-814.226536,-2145.067394
96.028245,-4663.297435,0.000000,-995.924147
96.028571,-6957.935855,1110.308913,-1532.190996
96.028897,-10066.800811,1110.308913,229.828649
96.029224,-14137.933492,518.144159,1455.581446
96.029550,-14434.015869,1406.391290,2374.896044
96.029877,-14582.057057,888.247130,919.314598
96.030203,-16136.489536,592.164754,2604.724693
96.030529,-14878.139434,-740.205942,766.095498
96.030856,-14359.995275,-814.226536,2451.505594
96.031182,-14804.118840,814.226536,3600.648841
96.031509,-9474.636058,518.144159,1378.971896
96.031835,-6439.791695,-1998.556043,76.609550
96.032161,-3775.050304,-1998.556043,-2298.286494
96.032488,0.000000,-518.144159,-1455.581446
96.032814,-1702.473667,-148.041188,-2221.676944
96.033141,-1850.514855,518.144159,-3753.867940
96.033467,-2294.638420,1332.370696,-1838.629195
96.033793,-7476.080014,-222.061783,-1378.971896
96.034120,-9474.636058,-370.102971,-229.828649
96.034446,-11177.109724,2072.576638,-306.438199
96.034773,-15322.262999,3256.906145,2068.457845
96.035099,-14730.098246,666.185348,2987.772442
96.035425,-13619.789333,148.041188,1838.629195
96.035752,-17024.736666,444.123565,2374.896044
96.036078,-16950.716072,740.205942,1532.190996
96.036405,-16728.654289,814.226536,1762.019645
96.036731,-12065.356855,1036.288319,2451.505594
96.037057,-6735.874072,-74.020594,76.609550
96.037384,-4441.235652,-1628.453072,76.609550
96.037710,-4219.173869,-962.267725,-2451.505594
96.038037,0.000000,-444.123565,-2068.457845
96.038363,-2664.741391,-740.205942,-2911.162892
96.038689,-3404.947333,370.102971,-1378.971896
96.039016,-3775.050304,-296.082377,-2528.115143
96.039342,-9770.718434,518.144159,-306.438199
96.039669,-11399.171507,444.123565,612.876398
96.039995,-13027.624579,1258.350101,766.095498
96.040321,-14137.933492,-740.205942,2604.724693
96.040648,-14211.954086,518.144159,1455.581446
96.040974,-15692.365970,592.164754,1532.190996
96.041301,-17912.983796,-1036.288319,1455.581446
96.041627,-16136.489536,148.041188,2298.286494
96.041953,-13397.727550,592.164754,3294.210641
96.042280,-8808.450710,1184.329507,1685.410096
96.042606,-4959.379811,-1924.535449,0.000000
96.042933,-3404.947333,-3701.029710,-1991.848295
96.043259,-370.102971,-444.123565,-1685.410096
96.043585,-1332.370696,-444.123565,-2911.162892
96.043912,-3034.844362,1480.411884,-1302.362347
96.044238,-5033.400406,444.123565,-3140.991542
96.044565,-7624.121203,444.123565,-689.485948
96.044891,-10807.006753,0.000000,0.000000
96.045217,-11769.274478,814.226536,536.266849
96.045544,-14285.974681,1480.411884,1302.362347
96.045870,-14434.015869,1480.411884,1991.848295
96.046197,-13545.768739,-222.061783,1149.143247
96.046523,-15396.283594,0.000000,2987.772442
96.046849,-17912.983796,1110.308913,1685.410096
96.047176,-15470.304188,518.144159,919.314598
96.047502,-11473.192101,1554.432478,1378.971896
96.047829,-4811.338623,-814.226536,76.609550
96.048155,-3108.864956,-2072.576638,153.219100
96.048481,-3034.844362,-2146.597232,-2068.457845
96.048808,-1110.308913,148.041188,-2604.724693
96.049134,-2220.617826,1628.453072,-1762.019645
96.049461,-3034.844362,2368.659014,-2604.724693
96.049787,-6513.812290,740.205942,-1762.019645
96.050113,-11547.212695,0.000000,-1455.581446
96.050440,-13767.830521,814.226536,1072.533697
96.050766,-13027.624579,1184.329507,1532.190996
96.051093,-13693.809927,666.185348,1685.410096
96.051419,-14434.015869,-444.123565,2145.067394
96.051745,-14582.057057,-1258.350101,1838.629195
96.052072,-14878.139434,296.082377,2528.115143
96.052398,-17468.860231,666.185348,1762.019645
96.052725,-12361.439231,0.000000,1149.143247
96.053051,-7846.182985,-962.267725,459.657299
96.053377,-3627.009116,-1924.535449,-1225.752797
96.053704,-1258.350101,-3404.947333,-2374.896044
96.054030,222.061783,-296.082377,-1915.238745
96.054357,148.041188,1628.453072,-2834.553343
96.054683,-3627.009116,2220.617826,-1762.019645
96.055009,-7846.182985,-1258.350101,-1378.971896
96.055336,-10658.965565,1184.329507,-1378.971896
96.055662,-13027.624579,1776.494261,0.000000
96.055989,-12953.603985,2220.617826,2068.457845
96.056315,-14804.118840,148.041188,2298.286494
96.056641,-15544.324782,-888.247130,3064.381992
96.056968,-15470.304188,-296.082377,3294.210641
96.057294,-15174.221811,814.226536,1915.238745
96.057621,-15174.221811,666.185348,1225.752797
96.057947,-15766.386565,666.185348,842.705048
96.058273,-11621.233289,0.000000,-306.438199
96.058600,-4811.338623,-2368.659014,-1455.581446
96.058926,-1998.556043,-2812.782580,-1225.752797
96.059253,1480.411884,-1406.391290,-536.266849
96.059579,-1850.514855,1480.411884,-1608.800546
96.059905,-3701.029710,-296.082377,-2834.553343
96.060232,-4145.153275,370.102971,-1302.362347
96.060558,-8882.471304,-370.102971,-1378.971896
96.060884,-10658.965565,-370.102971,-1149.143247
96.061211,-12435.459826,1850.514855,0.000000
96.061537,-15396.283594,2664.741391,2221.676944
96.061864,-15100.201217,222.061783,3524.039291
96.062190,-14211.954086,-1702.473667,1455.581446
96.062516,-16580.613101,-962.267725,1762.019645
96.062843,-15692.365970,962.267725,2145.067394
96.063169,-16062.468941,-444.123565,919.314598
96.063496,-10436.903782,-814.226536,2451.505594
96.063822,-4515.256246,-1480.411884,-995.924147
96.064148,-3404.947333,-2368.659014,-459.657299
96.064475,-1998.556043,-2590.720797,-2911.162892
96.064801,222.061783,0.000000,-4213.525239
96.065128,-1628.453072,0.000000,-2374.896044
96.065454,-2812.782580,1110.308913,-995.924147
96.065780,-5033.400406,74.020594,-2068.457845
96.066107,-10288.862594,814.226536,-536.266849
96.066433,-13323.706956,1924.535449,919.314598
96.066759,-15618.345376,1406.391290,1991.848295
96.067086,-13323.706956,518.144159,1455.581446
96.067412,-15026.180623,444.123565,1455.581446
96.067739,-15248.242405,888.247130,2221.676944
96.068065,-17838.963202,888.247130,1302.362347
96.068391,-16950.716072,2146.597232,2374.896044
96.068718,-14211.954086,666.185348,459.657299
96.069044,-9918.759623,-370.102971,1685.410096
96.069371,-3775.050304,-2072.576638,-1455.581446
96.069697,-1924.535449,-1628.453072,-1838.629195
96.070023,0.000000,-1184.329507,-306.438199
96.070350,-444.123565,1110.308913,-2757.943793
96.070676,-2812.782580,962.267725,-1149.143247
96.071002,-5403.503377,-962.267725,-3294.210641
96.071329,-8216.285956,444.123565,-1302.362347
96.071655,-11843.295072,0.000000,0.000000
96.071982,-12657.521608,1480.411884,2451.505594
96.072308,-14211.954086,222.061783,2374.896044
96.072634,-13397.727550,444.123565,3140.991542
96.072961,-15248.242405,0.000000,2298.286494
96.073287,-17542.880825,-592.164754,919.314598
96.073614,-16284.530724,0.000000,612.876398
96.073940,-15322.262999,1406.391290,2451.505594
96.074266,-8808.450710,0.000000,1838.629195
96.074593,-5255.462188,-1850.514855,995.924147
96.074919,-3108.864956,-3478.967927,-1225.752797
96.075246,-666.185348,-1480.411884,-1608.800546
96.075572,-888.247130,370.102971,-1991.848295
96.075898,-2664.741391,1332.370696,-3064.381992
96.076225,-3997.112087,888.247130,-2604.724693
96.076551,-8512.368333,222.061783,-919.314598
96.076877,-10140.821405,444.123565,229.828649
96.077204,-11769.274478,1480.411884,1072.533697
96.077530,-13915.871710,1776.494261,383.047749
96.077857,-15692.365970,1258.350101,2068.457845
96.078183,-14285.974681,-1258.350101,689.485948
96.078509,-14359.995275,-592.164754,2374.896044
96.078836,-16654.633695,1480.411884,2145.067394
96.079162,-16358.551318,666.185348,2451.505594
96.079489,-13397.727550,222.061783,2374.896044
96.079815,-5995.668130,-1850.514855,-1608.800546
96.080141,-3182.885551,-2368.659014,-306.438199
96.080468,-1924.535449,-2368.659014,-2681.334243
96.080794,814.226536,740.205942,-2604.724693
96.081121,-1480.411884,1702.473667,-306.438199
96.081447,-4589.276840,148.041188,-1991.848295
96.081773,-6809.894666,-148.041188,-1302.362347
96.082100,-10510.924376,296.082377,-2451.505594
96.082426,-11621.233289,1628.453072,0.000000
96.082752,-12953.603985,1406.391290,2451.505594
96.083079,-14211.954086,814.226536,1915.238745
96.083405,-13693.809927,-1406.391290,3217.601092
96.083732,-13693.809927,-962.267725,1762.019645
96.084058,-15618.345376,0.000000,2298.286494
96.084384,-17838.963202,296.082377,995.924147
96.084711,-13915.871710,-1110.308913,995.924147
96.085037,-7328.038826,-1110.308913,1532.190996
96.085364,-1924.535449,-888.247130,0.000000
96.085690,-1702.473667,-3701.029710,-1149.143247
96.086016,-962.267725,-2072.576638,-2374.896044
96.086343,-518.144159,2294.638420,-2757.943793
96.086669,-4515.256246,1998.556043,-2145.067394
96.086995,-6291.750507,-666.185348,-2834.553343
96.087322,-9178.553681,2146.597232,-1762.019645
96.087648,-13693.809927,2072.576638,0.000000
96.087975,-14285.974681,1776.494261,1072.533697
96.088301,-14730.098246,74.020594,1838.629195
96.088627,-14508.036463,-296.082377,2374.896044
96.088954,-14359.995275,-370.102971,3447.429741
96.089280,-15026.180623,296.082377,2145.067394
96.089607,-15914.427753,666.185348,2145.067394
96.089933,-15322.262999,1406.391290,1455.581446
96.090259,-11325.150913,0.000000,0.000000
96.090586,-4071.132681,-1184.329507,-1685.410096
96.090912,-1924.535449,-2146.597232,-2911.162892
96.091239,222.061783,-2146.597232,-383.047749
96.091565,-962.267725,888.247130,-1378.971896
96.091891,-2960.823768,666.185348,-2451.505594
96.092218,-5403.503377,370.102971,0.000000
96.092544,-9030.512492,222.061783,-2145.067394
96.092870,-11621.233289,296.082377,-1225.752797
96.093197,-13619.789333,1036.288319,-459.657299
96.093523,-14211.954086,1924.535449,2681.334243
96.093850,-13915.871710,666.185348,3907.087040
96.094176,-13915.871710,0.000000,3140.991542
96.094502,-16580.613101,222.061783,2451.505594
96.094829,-18505.148550,888.247130,383.047749
96.095155,-15470.304188,148.041188,1455.581446
96.095482,-11103.089130,222.061783,766.095498
96.095808,-4515.256246,-1332.370696,766.095498
96.096134,-1480.411884,-1702.473667,1608.800546
96.096461,-1776.494261,-2146.597232,-1378.971896
96.096787,0.000000,0.000000,-2451.505594
96.097113,-1850.514855,666.185348,-3753.867940
96.097440,-3997.112087,1480.411884,-2911.162892
96.097766,-6291.750507,296.082377,-2757.943793
96.098093,-10288.862594,0.000000,76.609550
96.098419,-12509.480420,814.226536,1685.410096
96.098745,-13545.768739,2294.638420,3370.820191
96.099072,-15988.448347,1702.473667,1378.971896
96.099398,-16284.530724,-296.082377,612.876398
96.099725,-15914.427753,-444.123565,1378.971896
96.100051,-15766.386565,1110.308913,1608.800546
96.100377,-16580.613101,1554.432478,1915.238745
96.100704,-13027.624579,0.000000,2451.505594
96.101030,-7624.121203,-1628.453072,1072.533697
96.101357,-3478.967927,-1184.329507,-842.705048
96.101683,-2590.720797,-1998.556043,-2757.943793
96.102009,0.000000,-296.082377,-1838.629195
96.102336,-962.267725,1332.370696,-2757.943793
96.102662,-3923.091493,592.164754,-383.047749
96.102988,-5181.441594,-1332.370696,-1378.971896
96.103315,-8068.244768,0.000000,-995.924147
96.103641,-10658.965565,962.267725,0.000000
96.103968,-13175.665768,1998.556043,1455.581446
96.104294,-15840.407159,666.185348,1072.533697
96.104620,-15618.345376,0.000000,1991.848295
96.104947,-14804.118840,0.000000,2987.772442
96.105273,-15544.324782,-518.144159,2298.286494
96.105600,-16432.571912,222.061783,1378.971896
96.105926,-15470.304188,-444.123565,995.924147
96.106252,-10510.924376,-148.041188,2145.067394
96.106579,-4293.194464,-1480.411884,612.876398
96.106905,-1406.391290,-3478.967927,-2374.896044
96.107232,-666.185348,-370.102971,-612.876398
96.107558,-888.247130,0.000000,-2757.943793
96.107884,-1998.556043,1036.288319,-2145.067394
96.108211,-5255.462188,-518.144159,-2911.162892
96.108537,-7994.224174,148.041188,-2451.505594
96.108863,-11843.295072,222.061783,-536.266849
96.109190,-12805.562797,1480.411884,612.876398
96.109516,-13027.624579,1776.494261,1915.238745
96.109843,-14137.933492,1036.288319,2451.505594
96.110169,-14582.057057,296.082377,2757.943793
96.110495,-14878.139434,148.041188,1302.362347
96.110822,-16580.613101,666.185348,229.828649
96.111148,-16876.695478,592.164754,2221.676944
96.111475,-12509.480420,888.247130,1149.143247
96.111801,-6883.915261,0.000000,-612.876398
96.112127,-2368.659014,-1258.350101,-536.266849
96.112454,-1184.329507,-2738.761985,-2145.067394
96.112780,-814.226536,518.144159,-919.314598
96.113106,-2368.659014,1554.432478,-2757.943793
96.113433,-4737.318029,1110.308913,-1915.238745
96.113759,-7254.018232,74.020594,-1149.143247
96.114086,-10140.821405,1258.350101,-2451.505594
96.114412,-12361.439231,1184.329507,76.609550
96.114738,-13545.768739,2072.576638,0.000000
96.115065,-12805.562797,1110.308913,2528.115143
96.115391,-13471.748144,-296.082377,2681.334243
96.115718,-15840.407159,74.020594,2987.772442
96.116044,-16210.510130,0.000000,1532.190996
96.116370,-17172.777854,592.164754,1608.800546
96.116697,-12953.603985,222.061783,2451.505594
96.117023,-7105.977043,-296.082377,459.657299
96.117350,-4071.132681,-1332.370696,306.438199
96.117676,-2146.597232,-3701.029710,-2374.896044
96.118002,-296.082377,-1110.308913,-1225.752797
96.118329,-1776.494261,0.000000,-2604.724693
96.118655,-2368.659014,2368.659014,-2451.505594
96.118981,-5403.503377,888.247130,-2757.943793
96.119308,-9400.615463,888.247130,-1608.800546
96.119634,-13101.645173,814.226536,306.438199
96.119961,-14137.933492,1850.514855,612.876398
96.120287,-15026.180623,1924.535449,2145.067394
96.120613,-13545.768739,-592.164754,1915.238745
96.120940,-15174.221811,-1110.308913,2451.505594
96.121266,-14508.036463,0.000000,2451.505594
96.121593,-15396.283594,296.082377,1149.143247
96.121919,-14878.139434,1406.391290,2604.724693
96.122245,-10214.842000,666.185348,-383.047749
96.122572,-5625.565159,-2294.638420,-1378.971896
96.122898,-2738.761985,-3849.070898,-2681.334243
96.123225,0.000000,-1110.308913,-995.924147
96.123551,296.082377,74.020594,-1149.143247
96.123877,-2294.638420,2220.617826,-1762.019645
96.124204,-5625.565159,814.226536,-1608.800546
96.124530,-9252.574275,592.164754,-1225.752797
96.124856,-11547.212695,518.144159,-1915.238745
96.125183,-12953.603985,1184.329507,229.828649
96.125509,-14285.974681,2146.597232,1302.362347
96.125836,-14952.160028,888.247130,3064.381992
96.126162,-14285.974681,-222.061783,3064.381992
96.126488,-15248.242405,-518.144159,3064.381992
96.126815,-16950.716072,222.061783,1991.848295
96.127141,-16950.716072,148.041188,919.314598
96.127468,-10807.006753,0.000000,383.047749
96.127794,-4219.173869,-1258.350101,76.609550
96.128120,-1998.556043,-1998.556043,-229.828649
96.128447,-1184.329507,-2960.823768,-842.705048
96.128773,-666.185348,-592.164754,-2221.676944
96.129099,-1406.391290,666.185348,-2834.553343
96.129426,-3923.091493,666.185348,-1762.019645
96.129752,-6069.688724,0.000000,-2221.676944
96.130079,-9400.615463,296.082377,-1532.190996
96.130405,-11843.295072,1406.391290,1225.752797
96.130731,-13989.892304,1702.473667,2451.505594
96.131058,-13397.727550,444.123565,1915.238745
96.131384,-16284.530724,444.123565,1455.581446
96.131711,-17024.736666,888.247130,1685.410096
96.132037,-17172.777854,444.123565,766.095498
96.132363,-16284.530724,740.205942,2911.162892
96.132690,-11621.233289,814.226536,1608.800546
96.133016,-8956.491898,518.144159,1225.752797
96.133343,-4663.297435,-592.164754,-459.657299
96.133669,-2960.823768,-2516.700203,-3064.381992
96.133995,-1110.308913,0.000000,-1225.752797
96.134322,-2442.679609,370.102971,-3983.696590
96.134648,-3552.988522,1628.453072,-1762.019645
96.134974,-4515.256246,-148.041188,-2221.676944
96.135301,-6883.915261,1036.288319,-383.047749
96.135627,-11177.109724,0.000000,229.828649
96.135954,-12879.583391,2072.576638,689.485948
96.136280,-15026.180623,1184.329507,2298.286494
96.136606,-14656.077652,370.102971,1072.533697
96.136933,-16062.468941,0.000000,2374.896044
96.137259,-16358.551318,-1406.391290,1991.848295
96.137586,-14730.098246,592.164754,1838.629195
96.137912,-14211.954086,370.102971,2374.896044
96.138238,-9104.533087,518.144159,689.485948
96.138565,-5699.585753,-1924.535449,76.609550
96.138891,-3627.009116,-3404.947333,-1455.581446
96.139217,-740.205942,-1776.494261,-1225.752797
96.139544,-1258.350101,-814.226536,-2298.286494
96.139870,-2072.576638,1480.411884,-1532.190996
96.140197,-2886.803174,296.082377,-2451.505594
96.140523,-7698.141797,666.185348,-1072.533697
96.140849,-10955.047942,0.000000,-1532.190996
96.141176,-12657.521608,1628.453072,306.438199
96.141502,-15470.304188,1480.411884,919.314598
96.141829,-13841.851115,-222.061783,1762.019645
96.142155,-14730.098246,-518.144159,2374.896044
96.142481,-15396.283594,296.082377,2451.505594
96.142808,-16728.654289,1036.288319,1072.533697
96.143134,-16284.530724,518.144159,2298.286494
96.143461,-11325.150913,1554.432478,1991.848295
96.143787,-6957.935855,0.000000,76.609550
96.144113,-4515.256246,-1924.535449,-306.438199
96.144440,-1924.535449,-3330.926739,-2451.505594
96.144766,-370.102971,370.102971,-1762.019645
96.145092,-2516.700203,1406.391290,-2221.676944
96.145419,-3923.091493,222.061783,-2834.553343
96.145745,-7031.956449,962.267725,-1991.848295
96.146072,-10658.965565,1776.494261,-1608.800546
96.146398,-12435.459826,1184.329507,612.876398
96.146724,-13767.830521,1036.288319,1225.752797
96.147051,-14952.160028,962.267725,2834.553343
96.147377,-13915.871710,-296.082377,2374.896044
96.147704,-13915.871710,-1406.391290,2604.724693
96.148030,-15026.180623,0.000000,1991.848295
96.148356,-16654.633695,-222.061783,229.828649
96.148683,-13471.748144,814.226536,2834.553343
96.149009,-7476.080014,-1110.308913,0.000000
96.149336,-2886.803174,-2516.700203,-306.438199
96.149662,-2368.659014,-3478.967927,-1072.533697
96.149988,0.000000,-1480.411884,-1378.971896
96.150315,0.000000,962.267725,-2145.067394
96.150641,-3923.091493,1776.494261,-2068.457845
96.150967,-6291.750507,0.000000,-1838.629195
96.151294,-10288.862594,1480.411884,-2298.286494
96.151620,-12583.501014,1036.288319,-689.485948
96.151947,-13323.706956,2368.659014,1225.752797
96.152273,-14952.160028,1110.308913,1915.238745
96.152599,-15100.201217,-1110.308913,2681.334243
96.152926,-13767.830521,-962.267725,3830.477490
96.153252,-14211.954086,0.000000,2374.896044
96.153579,-17024.736666,814.226536,2374.896044
96.153905,-14952.160028,370.102971,1455.581446
96.154231,-11103.089130,-814.226536,0.000000
96.154558,-4293.194464,-888.247130,-76.609550
96.154884,-1258.350101,-2368.659014,-3217.601092
96.155210,-518.144159,-592.164754,-1225.752797
96.155537,-1184.329507,0.000000,-3600.648841
96.155863,-2368.659014,1184.329507,-2604.724693
96.156190,-6143.709319,592.164754,-1608.800546
96.156516,-8734.430116,370.102971,-1838.629195
96.156842,-11917.315666,962.267725,-536.266849
96.157169,-14211.954086,2146.597232,153.219100
96.157495,-15174.221811,2294.638420,2757.943793
96.157822,-14804.118840,-962.267725,2451.505594
96.158148,-15322.262999,-592.164754,3753.867940
96.158474,-13545.768739,296.082377,2604.724693
96.158801,-15914.427753,0.000000,1608.800546
96.159127,-16136.489536,148.041188,2145.067394
96.159454,-11103.089130,-814.226536,-612.876398
96.159780,-5699.585753,-1258.350101,536.266849
96.160106,-1776.494261,-1924.535449,-1685.410096
96.160433,-740.205942,-1924.535449,-689.485948
96.160759,-1184.329507,-1480.411884,-2145.067394
96.161085,-1332.370696,1184.329507,-2834.553343
96.161412,-4367.215058,1110.308913,-1149.143247
96.161738,-7179.997637,-148.041188,-2451.505594
96.162065,-9548.656652,740.205942,-612.876398
96.162391,-12287.418637,1776.494261,383.047749
96.162717,-14434.015869,3108.864956,2528.115143
96.163044,-14063.912898,814.226536,2221.676944
96.163370,-15026.180623,814.226536,1991.848295
96.163697,-16876.695478,666.185348,2528.115143
96.164023,-17468.860231,370.102971,919.314598
96.164349,-15914.427753,1036.288319,2681.334243
96.164676,-12361.439231,1258.350101,2145.067394
96.165002,-7328.038826,0.000000,612.876398
96.165329,-4219.173869,-1776.494261,-536.266849
96.165655,-1998.556043,-2294.638420,-2604.724693
96.165981,-74.020594,-370.102971,-1302.362347
96.166308,-2368.659014,148.041188,-3064.381992
96.166634,-3330.926739,0.000000,-2068.457845
96.166961,-4959.379811,444.123565,-2681.334243
96.167287,-8216.285956,518.144159,-1532.190996
96.167613,-10807.006753,148.041188,536.266849
96.167940,-13027.624579,2072.576638,689.485948
96.168266,-16136.489536,1110.308913,2911.162892
96.168593,-15100.201217,-666.185348,2298.286494
96.168919,-14952.160028,-1554.432478,1302.362347
96.169245,-16506.592507,1628.453072,1608.800546
96.169572,-17764.942608,518.144159,842.705048
96.169898,-14285.974681,-1036.288319,1915.238745
96.170225,-8882.471304,-1036.288319,1685.410096
96.170551,-3404.947333,-740.205942,919.314598
96.170877,-3404.947333,-2664.741391,-919.314598
96.171204,-1776.494261,-1110.308913,-1608.800546
96.171530,-1554.432478,-444.123565,-3294.210641
96.171857,-2590.720797,-592.164754,-1532.190996
96.172183,-3182.885551,-740.205942,-2911.162892
96.172509,-5921.647536,1924.535449,-2987.772442
96.172836,-10955.047942,1628.453072,229.828649
96.173162,-13027.624579,444.123565,1532.190996
96.173489,-14434.015869,1036.288319,2068.457845
96.173815,-13767.830521,666.185348,2145.067394
96.174141,-15322.262999,370.102971,1915.238745
96.174468,-16062.468941,296.082377,1762.019645
96.174794,-16580.613101,592.164754,1378.971896
96.175121,-16358.551318,814.226536,2757.943793
96.175447,-11325.150913,296.082377,1762.019645
96.175773,-6661.853478,1036.288319,-383.047749
96.176100,-3701.029710,-888.247130,-1762.019645
96.176426,-1924.535449,-2516.700203,-2451.505594
96.176753,-296.082377,-888.247130,-1302.362347
96.177079,-1554.432478,518.144159,-1762.019645
96.177405,-3478.967927,1332.370696,-1762.019645
96.177732,-6587.832884,74.020594,-2221.676944
96.178058,-9918.759623,1258.350101,-1225.752797
96.178385,-12509.480420,888.247130,-229.828649
96.178711,-13397.727550,1998.556043,612.876398
96.179037,-14137.933492,1110.308913,2681.334243
96.179364,-12879.583391,296.082377,2528.115143
96.179690,-15248.242405,-1036.288319,3370.820191
96.180017,-15914.427753,-518.144159,1915.238745
96.180343,-16210.510130,444.123565,766.095498
96.180669,-14878.139434,666.185348,1685.410096
96.180996,-7328.038826,-370.102971,-229.828649
96.181322,-3478.967927,-1850.514855,689.485948
96.181649,-2738.761985,-4663.297435,-1302.362347
96.181975,962.267725,-1406.391290,-842.705048
96.182301,-962.267725,296.082377,-1455.581446
96.182628,-2442.679609,1702.473667,-2604.724693
96.182954,-5551.544565,444.123565,-3140.991542
96.183281,-11029.068536,444.123565,-2221.676944
96.183607,-12435.459826,1332.370696,-536.266849
96.183933,-13249.686362,1628.453072,1149.143247
96.184260,-13619.789333,1036.288319,2451.505594
96.184586,-13767.830521,222.061783,3294.210641
96.184913,-14804.118840,-1036.288319,1915.238745
96.185239,-15322.262999,296.082377,3524.039291
96.185565,-16136.489536,1406.391290,1762.019645
96.185892,-16062.468941,1184.329507,1915.238745
96.186218,-10881.027347,444.123565,1072.533697
96.186545,-4071.132681,-1110.308913,-2221.676944
96.186871,-2516.700203,-1332.370696,-1378.971896
96.187197,-1036.288319,-2146.597232,-3217.601092
96.187524,-962.267725,222.061783,-1991.848295
96.187850,-2590.720797,814.226536,-2374.896044
96.188177,-5625.565159,1850.514855,-2221.676944
96.188503,-8438.347739,666.185348,-995.924147
96.188829,-11251.130318,888.247130,-1915.238745
96.189156,-13841.851115,2146.597232,1532.190996
96.189482,-15766.386565,888.247130,1455.581446
96.189809,-13841.851115,518.144159,2604.724693
96.190135,-14508.036463,-518.144159,2451.505594
96.190461,-14952.160028,444.123565,2987.772442
96.190788,-15766.386565,1110.308913,2834.553343
96.191114,-16654.633695,0.000000,766.095498
96.191441,-10066.800811,-296.082377,1991.848295
96.191767,-5403.503377,0.000000,-306.438199
96.192093,-2812.782580,-2072.576638,-1532.190996
96.192420,-1998.556043,-1998.556043,-919.314598
96.192746,-1776.494261,-1258.350101,-1532.190996
96.193072,-1184.329507,-444.123565,-2451.505594
96.193399,-2368.659014,1036.288319,-1455.581446
96.193725,-6809.894666,888.247130,-2451.505594
96.194052,-10510.924376,888.247130,0.000000
96.194378,-13397.727550,444.123565,1149.143247
96.194704,-14211.954086,1258.350101,2604.724693
96.195031,-13767.830521,1554.432478,2604.724693
96.195357,-16062.468941,888.247130,1455.581446
96.195684,-15248.242405,-1480.411884,1302.362347
96.196010,-14137.933492,74.020594,1455.581446
96.196336,-14508.036463,1406.391290,2757.943793
96.196663,-13027.624579,814.226536,1991.848295
96.196989,-8882.471304,-1036.288319,-612.876398
96.197316,-3552.988522,-2072.576638,-1532.190996
96.197642,-1776.494261,-592.164754,-1149.143247
96.197968,-1850.514855,-2442.679609,-2298.286494
96.198295,-740.205942,0.000000,-3753.867940
96.198621,-1998.556043,3256.906145,-2221.676944
96.198948,-6957.935855,888.247130,-1225.752797
96.199274,-8734.430116,-1554.432478,-1915.238745
96.199600,-10584.944971,1258.350101,-842.705048
96.199927,-14952.160028,3627.009116,1455.581446
96.200253,-14582.057057,1406.391290,3600.648841
96.200580,-15988.448347,-962.267725,306.438199
96.200906,-16062.468941,-1554.432478,2451.505594
96.201232,-16136.489536,666.185348,3677.258390
96.201559,-14137.933492,1702.473667,1378.971896
96.201885,-13397.727550,-296.082377,1685.410096
96.202212,-10658.965565,-962.267725,919.314598
96.202538,-7105.977043,-2738.761985,1149.143247
96.202864,-3034.844362,-2368.659014,-612.876398
96.203191,444.123565,-1628.453072,-2681.334243
96.203517,0.000000,296.082377,-1532.190996
96.203844,-2590.720797,74.020594,-2221.676944
96.204170,-2886.803174,0.000000,-2834.553343
96.204496,-7994.224174,1850.514855,-1072.533697
96.204823,-11917.315666,296.082377,-1225.752797
96.205149,-13545.768739,740.205942,1072.533697
96.205476,-14730.098246,1554.432478,1149.143247
96.205802,-14582.057057,1924.535449,1991.848295
96.206128,-14730.098246,-888.247130,3294.210641
96.206455,-16580.613101,74.020594,3217.601092
96.206781,-15692.365970,962.267725,1378.971896
96.207108,-15544.324782,-370.102971,689.485948
96.207434,-12139.377449,296.082377,1915.238745
96.207760,-6439.791695,-444.123565,-766.095498
96.208087,-4663.297435,-2072.576638,-1532.190996
96.208413,-1332.370696,-2294.638420,-2374.896044
96.208740,1110.308913,-592.164754,-1149.143247
